"Time (s)","Acceleration x (m/s^2)","Acceleration y (m/s^2)","Acceleration z (m/s^2)","Absolute acceleration (m/s^2)"
2.897625323E-3,4.263134766E0,7.946525116E0,6.858288116E0,1.132950552E1
1.290862542E-2,3.830684052E0,7.532037048E0,7.890691223E0,1.156151938E1
2.291862527E-2,3.810775452E0,7.525450745E0,8.519982605E0,1.198935036E1
3.292962536E-2,3.130589905E0,7.402556305E0,8.598269806E0,1.176982059E1
4.293962521E-2,1.961970062E0,7.201374664E0,8.993747406E0,1.168745550E1
5.295062531E-2,7.729925537E-1,6.857988739E0,9.748777313E0,1.194437885E1
6.296062516E-2,-3.370989990E-1,6.682403870E0,1.006387207E1,1.208510150E1
7.297162525E-2,-6.780899048E-2,6.518045654E0,9.638756104E0,1.163594158E1
8.298162511E-2,9.101074219E-1,6.081852722E0,9.683363342E0,1.147103978E1
9.299262520E-2,1.258283386E0,5.526507568E0,9.692793732E0,1.122834865E1
1.030026251E-1,1.555565186E0,5.228776703E0,8.945547638E0,1.047772453E1
1.130126254E-1,2.016456757E0,4.822072449E0,7.238347778E0,8.928166615E0
1.230236250E-1,2.605631561E0,4.661606140E0,6.971602478E0,8.781977497E0
1.330336253E-1,2.722837830E0,4.411476288E0,8.936416626E0,1.033123957E1
1.430446254E-1,3.458857269E0,3.717369690E0,1.077100159E1,1.190785481E1
1.530546253E-1,2.969225464E0,3.032094727E0,1.086291046E1,1.166244923E1
1.630656254E-1,2.190844116E0,1.437460785E0,1.078626984E1,1.109998687E1
1.730756252E-1,1.850901031E0,1.134490814E0,1.161105469E1,1.181226037E1
1.830866253E-1,1.353784790E0,1.928140411E0,1.166209854E1,1.189768890E1
1.930966252E-1,2.833607483E-1,4.012855225E0,9.950108643E0,1.073256551E1
2.031066250E-1,-3.044668579E-1,5.581143951E0,8.540939026E0,1.020732616E1
2.131176251E-1,1.215173035E0,6.953041077E0,7.669301605E0,1.042303280E1
2.231276254E-1,1.691632233E0,5.418582001E0,6.693929901E0,8.776750425E0
2.331386250E-1,1.721420288E0,4.312831421E0,7.394922180E0,8.732048827E0
2.431486254E-1,8.276289368E-1,4.385729828E0,8.574020233E0,9.666096355E0
2.531596250E-1,-3.748205566E-1,4.434678040E0,8.942553864E0,9.988800197E0
2.631696253E-1,-1.255888367E0,3.975283356E0,8.473728790E0,9.443739353E0
2.731803753E-1,-1.935475159E0,3.424578552E0,8.014483795E0,8.927807841E0
2.831903752E-1,-2.541115723E0,2.618055725E0,8.008047180E0,8.800017303E0
2.932003750E-1,-3.055446167E0,2.222278748E0,7.943231964E0,8.795976816E0
3.032113751E-1,-3.750899963E0,2.381846924E0,7.322323151E0,8.564978787E0
3.132213750E-1,-3.880530396E0,2.821033630E0,5.967191162E0,7.656638770E0
3.232323751E-1,-2.824027405E0,3.187321930E0,4.324956207E0,6.069546776E0
3.332423754E-1,-1.721869354E0,4.186494141E0,4.129013672E0,6.127015682E0
3.432533750E-1,-1.457369385E0,4.367767181E0,4.448599091E0,6.402448715E0
3.532633753E-1,-2.002984772E0,3.612886963E0,4.627028046E0,6.202764604E0
3.632743750E-1,-2.242786102E0,3.298840027E0,5.207371216E0,6.559660815E0
3.732843753E-1,-1.967059479E0,3.696263580E0,5.830974426E0,7.178575779E0
3.832943751E-1,-1.454824677E0,4.098626862E0,6.423592072E0,7.757434633E0
3.933053752E-1,-5.134323120E-1,4.079766083E0,6.632407837E0,7.803649002E0
4.033153751E-1,2.364782410E0,5.008734283E0,5.911207581E0,8.100740091E0
4.133263752E-1,2.541864166E0,5.805078278E0,6.291267242E0,8.929728482E0
4.233363750E-1,1.526525574E0,5.463638306E0,5.780080261E0,8.098824093E0
4.333473751E-1,-8.747808838E-1,3.940256195E0,5.649701385E0,6.943341143E0
4.433573750E-1,-2.052831116E0,4.133504333E0,5.861810303E0,7.460616174E0
4.533683751E-1,-2.162103882E0,5.085075531E0,6.007756805E0,8.162464590E0
4.633783754E-1,-1.810934143E0,5.811215515E0,6.068680115E0,8.595265358E0
4.733883752E-1,-1.380429382E0,5.912554779E0,5.869893494E0,8.445089634E0
4.833993753E-1,-1.162931671E0,5.974825287E0,4.983287201E0,7.866644685E0
4.934093752E-1,-1.256636810E0,5.987548828E0,4.517156525E0,7.604905003E0
5.034203753E-1,-1.490001526E0,5.919290771E0,5.011728058E0,7.897817794E0
5.134303751E-1,-1.774859161E0,5.938151550E0,5.526058502E0,8.303558963E0
5.234413752E-1,-2.140249329E0,5.822591858E0,6.007607117E0,8.635657844E0
5.334513751E-1,-2.761158142E0,5.463638306E0,6.736441498E0,9.102471196E0
5.434623752E-1,-2.944377136E0,5.218747559E0,7.291187897E0,9.437483973E0
5.534723750E-1,-3.137325897E0,4.848717041E0,7.322173462E0,9.325614990E0
5.634823753E-1,-3.422033844E0,4.700076141E0,7.212152252E0,9.263701823E0
5.734933750E-1,-3.656446381E0,4.981041870E0,7.568411407E0,9.770426269E0
5.835033753E-1,-3.427871704E0,5.563480682E0,7.857759705E0,1.021993196E1
5.935143754E-1,-3.385060730E0,5.768254852E0,7.555089111E0,1.009013239E1
6.035243752E-1,-3.300785980E0,5.881718903E0,7.053631897E0,9.759279086E0
6.135353753E-1,-2.887645111E0,5.896687775E0,6.865772552E0,9.499908091E0
6.235453752E-1,-3.164569244E0,5.555397491E0,7.654033356E0,9.973021929E0
6.335563753E-1,-3.996090088E0,5.510790253E0,9.710157623E0,1.185852884E1
6.435663751E-1,-4.847818909E0,4.954546967E0,1.083791245E1,1.286503906E1
6.535763750E-1,-5.270689545E0,4.480033722E0,1.049063461E1,1.256599718E1
6.635873751E-1,-6.366710358E0,5.476212158E0,9.677824860E0,1.281343804E1
6.735973754E-1,-7.520061951E0,6.196214905E0,8.260721741E0,1.277434674E1
6.836083750E-1,-8.446335754E0,5.940396881E0,7.062313843E0,1.251020302E1
6.936183753E-1,-8.869655457E0,6.014043732E0,6.839427338E0,1.271287836E1
7.036293750E-1,-9.051976318E0,5.606141968E0,7.376809845E0,1.295316280E1
7.136393753E-1,-8.149652710E0,5.263354797E0,7.763306122E0,1.242532354E1
7.236503754E-1,-6.950047302E0,5.308261414E0,8.130941620E0,1.194123144E1
7.336603752E-1,-6.435716858E0,4.306993561E0,8.346643066E0,1.138574088E1
7.436703751E-1,-5.722001038E0,3.710783386E0,7.377258911E0,1.004664911E1
7.536813752E-1,-5.157824249E0,3.579506378E0,6.462211761E0,9.009783446E0
7.636913750E-1,-4.755011902E0,3.272794189E0,5.550308075E0,8.007948534E0
7.737023751E-1,-4.419110413E0,3.025209045E0,4.567601624E0,7.038708063E0
7.837123750E-1,-4.180506592E0,3.006048889E0,3.575764160E0,6.268895805E0
7.937233751E-1,-3.859124908E0,2.610421600E0,3.107388153E0,5.600268487E0
8.037333754E-1,-3.595822449E0,1.861977997E0,3.317251740E0,5.234602205E0
8.137443750E-1,-3.236569519E0,1.102307739E0,4.087849274E0,5.329256636E0
8.237543753E-1,-2.644101562E0,1.278341675E0,4.306394806E0,5.212529783E0
8.337643752E-1,-2.450254669E0,7.177574158E-1,3.969744873E0,4.719936229E0
8.437753753E-1,-2.422711945E0,3.921844482E-2,3.863166504E0,4.560167397E0
8.537853751E-1,-2.646346893E0,-4.146377563E-1,3.238216095E0,4.202513513E0
8.637963752E-1,-3.372786255E0,-6.336323547E-1,2.931054840E0,4.513120822E0
8.738063751E-1,-3.931125183E0,-6.134243774E-1,2.378553772E0,4.635466829E0
8.838173752E-1,-4.255949707E0,-5.333409119E-1,1.727707214E0,4.624125069E0
8.938273750E-1,-4.668342133E0,-5.587879944E-1,1.803150330E0,5.035574784E0
9.038383751E-1,-5.396877136E0,-1.259480896E0,3.236419830E0,6.417708958E0
9.138483750E-1,-5.651497650E0,-1.485660553E0,2.708018646E0,6.440495164E0
9.238583753E-1,-6.312523041E0,-9.696835327E-1,1.936522980E0,6.673706208E0
9.338693754E-1,-7.297774200E0,-8.812174988E-1,2.225422211E0,7.680270606E0
9.438793752E-1,-9.055718536E0,-1.207987976E0,2.529739380E0,9.479707511E0
9.538903753E-1,-1.066816544E1,-1.005159760E0,3.210074615E0,1.118591431E1
9.639003752E-1,-1.203676941E1,-5.153782654E-1,3.971690826E0,1.268557293E1
9.739113753E-1,-1.310195435E1,-1.143621826E-1,4.494104462E0,1.385176022E1
9.839213751E-1,-1.340896591E1,1.987866211E-1,4.683011627E0,1.420459365E1
9.939323752E-1,-1.309925995E1,3.755690002E-1,4.394411774E0,1.382181313E1
1.003942375E0,-1.284284317E1,4.445755005E-2,3.609893188E0,1.334061190E1
1.013952375E0,-1.287682251E1,-4.282594299E-1,2.878065033E0,1.320148561E1
1.023963375E0,-1.300435730E1,-9.095086670E-1,2.446512451E0,1.326370755E1
1.033973375E0,-1.278371613E1,-1.099313965E0,2.452500000E0,1.306317899E1
1.043984375E0,-1.285796173E1,-1.402583313E0,2.520608368E0,1.317755237E1
1.053994375E0,-1.315748886E1,-1.949396210E0,2.540367279E0,1.354153332E1
1.064005375E0,-1.342228821E1,-2.407743073E0,2.632276154E0,1.388826574E1
1.074015375E0,-1.383093842E1,-2.769091644E0,2.700234833E0,1.436154567E1
1.084026375E0,-1.453971451E1,-3.109483795E0,2.768642578E0,1.512407251E1
1.094036375E0,-1.509251495E1,-3.447480927E0,3.024310913E0,1.577388947E1
1.104046375E0,-1.537782166E1,-3.490740967E0,3.210972748E0,1.609263861E1
1.114057375E0,-1.557346481E1,-3.280877380E0,2.898123322E0,1.617702326E1
1.124067375E0,-1.570099960E1,-3.176694031E0,2.212698669E0,1.617123399E1
1.134078375E0,-1.580473389E1,-3.179987183E0,1.511107635E0,1.619213939E1
1.144088375E0,-1.607611954E1,-3.341950378E0,9.078620911E-1,1.644489177E1
1.154099375E0,-1.667786819E1,-3.531007233E0,5.050497437E-1,1.705503957E1
1.164109375E0,-1.707888428E1,-3.235372009E0,5.342390442E-1,1.739084045E1
1.174119375E0,-1.678294968E1,-2.347867584E0,8.973838806E-1,1.697012610E1
1.184130375E0,-1.622476044E1,-1.204096069E0,1.612297211E0,1.634907340E1
1.194140375E0,-1.559352310E1,-3.628454590E-1,2.470462646E0,1.579217544E1
1.204151375E0,-1.508368332E1,-2.769241333E-2,3.001109161E0,1.537936688E1
1.214161375E0,-1.473266327E1,-7.993377686E-2,3.186573486E0,1.507355323E1
1.224172375E0,-1.482307526E1,-4.305047607E-1,2.977308655E0,1.512525244E1
1.234182375E0,-1.493444366E1,-6.366261292E-1,2.281405792E0,1.512110157E1
1.244193375E0,-1.509999939E1,-4.861889648E-1,1.327589264E0,1.516604281E1
1.254203375E0,-1.488804016E1,-1.363664246E-1,3.385958862E-1,1.489251432E1
1.264213375E0,-1.425620407E1,1.835183716E-1,-5.360353088E-1,1.426745834E1
1.274225042E0,-1.330403412E1,2.585124207E-1,-1.196611633E0,1.336024071E1
1.284235042E0,-1.222043747E1,9.535171509E-2,-1.442550201E0,1.230565459E1
1.294246042E0,-1.115600098E1,-1.764830017E-1,-1.460812225E0,1.125262087E1
1.304256042E0,-1.023945694E1,-6.388714600E-1,-1.273551636E0,1.033811245E1
1.314267042E0,-9.347910919E0,-1.219813385E0,-6.197113037E-1,9.447508949E0
1.324277042E0,-8.425529022E0,-1.370400238E0,3.682342529E-1,8.544187064E0
1.334288042E0,-7.562423859E0,-1.438658295E0,1.394051056E0,7.823258314E0
1.344298042E0,-6.490203552E0,-1.414857788E0,2.048490143E0,6.951321930E0
1.354308042E0,-5.673202515E0,-1.045575714E0,2.614163818E0,6.333427809E0
1.364319042E0,-5.471721497E0,-1.015937347E0,3.102448425E0,6.371581520E0
1.374329042E0,-5.521268463E0,-7.463479614E-1,3.027005310E0,6.340678345E0
1.384340042E0,-5.825735321E0,-3.855981445E-1,2.530487823E0,6.363273260E0
1.394350042E0,-5.783672791E0,-1.490899658E-1,1.994901581E0,6.119863649E0
1.404361042E0,-5.670358429E0,-1.526824951E-2,1.417402496E0,5.844846249E0
1.414371042E0,-5.479355621E0,5.478607178E-2,8.411009216E-1,5.543806481E0
1.424382042E0,-5.256918182E0,6.271957397E-2,3.031196594E-1,5.266023552E0
1.434392042E0,-5.243745575E0,5.777984619E-2,4.894821167E-2,5.244292335E0
1.444402042E0,-5.414390717E0,8.232879639E-3,1.654060364E-1,5.416922906E0
1.454413042E0,-5.475912781E0,1.736389160E-2,3.773652649E-1,5.488927658E0
1.464423042E0,-5.494174805E0,-4.191284180E-3,5.740562439E-1,5.524084985E0
1.474434042E0,-5.868246918E0,-7.619155884E-2,7.538323975E-1,5.916957861E0
1.484444042E0,-6.362070007E0,-4.017645264E-1,9.018745422E-1,6.438223917E0
1.494455042E0,-6.964716797E0,-6.764433289E-1,8.301736450E-1,7.046562560E0
1.504465042E0,-7.661068726E0,-6.661148071E-1,5.510041809E-1,7.709687968E0
1.514475042E0,-8.126750336E0,-7.155120850E-1,2.273771667E-1,8.161355827E0
1.524486042E0,-8.344248047E0,-8.900491333E-1,-3.457809448E-2,8.391654102E0
1.534496042E0,-8.415350189E0,-1.075513458E0,-1.886077881E-1,8.485895410E0
1.544507042E0,-8.516390076E0,-1.198108521E0,-3.228785706E-1,8.606312481E0
1.554517042E0,-8.917256470E0,-1.337618408E0,-4.484674072E-1,9.028167531E0
1.564528042E0,-9.368867340E0,-1.546583862E0,-3.290158081E-1,9.501360338E0
1.574538042E0,-9.885293427E0,-1.677262115E0,-2.451901245E-1,1.002957390E1
1.584549042E0,-1.046428940E1,-1.922901306E0,-3.531156921E-1,1.064535545E1
1.594559042E0,-1.070004913E1,-2.321073303E0,-4.318519592E-1,1.095741433E1
1.604569042E0,-1.117486176E1,-2.622247009E0,-4.493655396E-1,1.148719478E1
1.614580042E0,-1.139819733E1,-2.827021179E0,-3.149450684E-1,1.174777176E1
1.624590042E0,-1.155237671E1,-2.808459778E0,-1.886077881E-2,1.188886915E1
1.634601042E0,-1.213346832E1,-2.978655853E0,2.504292297E-1,1.249624580E1
1.644611042E0,-1.255334518E1,-2.860102386E0,3.459306335E-1,1.287968668E1
1.654622042E0,-1.304327637E1,-2.720891876E0,4.209246826E-1,1.333069723E1
1.664632042E0,-1.365505417E1,-2.936293945E0,3.923341370E-1,1.397269668E1
1.674642042E0,-1.451112396E1,-3.340154114E0,1.264869690E-1,1.489111638E1
1.684653042E0,-1.525028687E1,-3.813320160E0,-1.442999268E-1,1.572047972E1
1.694663042E0,-1.546598831E1,-3.974534912E0,-1.841171265E-1,1.596958426E1
1.704674042E0,-1.544368469E1,-3.736230469E0,1.104702759E-1,1.588958837E1
1.714684042E0,-1.531659897E1,-2.956052856E0,5.050497437E-1,1.560741900E1
1.724695042E0,-1.519969208E1,-1.825453949E0,7.039860535E-1,1.532509438E1
1.734705042E0,-1.523441986E1,-1.046473846E0,9.083111572E-1,1.529730974E1
1.744716042E0,-1.549577637E1,-1.028660889E0,8.722361755E-1,1.555435709E1
1.754726042E0,-1.580922455E1,-1.804796906E0,5.828878784E-1,1.592258242E1
1.764736042E0,-1.544832504E1,-2.717748413E0,3.909869385E-1,1.569043574E1
1.774747042E0,-1.475197311E1,-3.520079956E0,3.653901672E-1,1.517053670E1
1.784757042E0,-1.401026550E1,-4.123924255E0,5.854325867E-1,1.461632724E1
1.794768042E0,-1.316736832E1,-4.363575897E0,8.470884705E-1,1.389740774E1
1.804778042E0,-1.246682510E1,-4.210743713E0,9.391470337E-1,1.319219799E1
1.814789042E0,-1.193288544E1,-3.752546539E0,1.059347076E0,1.255378734E1
1.824799042E0,-1.160102554E1,-3.189417572E0,1.111139374E0,1.208266563E1
1.834810042E0,-1.154773636E1,-2.708617401E0,1.153201904E0,1.191707589E1
1.844820042E0,-1.153501282E1,-2.409389648E0,1.145567780E0,1.183951032E1
1.854830042E0,-1.154534134E1,-2.184108124E0,1.102906494E0,1.180176418E1
1.864841042E0,-1.137379807E1,-1.929038544E0,1.045126648E0,1.158346934E1
1.874851042E0,-1.100810852E1,-1.765877838E0,9.876461792E-1,1.119250744E1
1.884862042E0,-1.058763290E1,-1.602118378E0,9.125024414E-1,1.074697234E1
1.894872042E0,-1.012763947E1,-1.502126312E0,6.959028625E-1,1.026205366E1
1.904883042E0,-9.774374084E0,-1.496138763E0,4.810995483E-1,9.899912965E0
1.914893042E0,-9.419013062E0,-1.437311096E0,2.938389587E-1,9.532576335E0
1.924903042E0,-9.117390289E0,-1.421294403E0,7.394622803E-2,9.227803179E0
1.934914042E0,-8.802744598E0,-1.473984833E0,-1.037342834E-1,8.925900770E0
1.944924042E0,-8.599916382E0,-1.566642151E0,-2.459385681E-1,8.744907957E0
1.954935042E0,-8.341553650E0,-1.659598846E0,-3.457809448E-1,8.512070846E0
1.964945042E0,-8.046068115E0,-1.649420013E0,-3.516188049E-1,8.220914443E0
1.974956042E0,-7.778873749E0,-1.602118378E0,-2.787203979E-1,7.947033733E0
1.984966042E0,-7.538024597E0,-1.643133087E0,-1.790277100E-1,7.717107754E0
1.994977042E0,-7.329657898E0,-1.728305969E0,-4.445755005E-2,7.530796963E0
2.004987042E0,-7.126230927E0,-1.777254181E0,2.874023438E-2,7.344564360E0
2.014997042E0,-6.988068237E0,-1.850901031E0,8.577163696E-2,7.229542800E0
2.025008042E0,-6.911277924E0,-2.001487885E0,1.417552185E-1,7.196652752E0
2.035018042E0,-6.734944611E0,-2.203268280E0,1.190025330E-1,7.087173740E0
2.045029042E0,-6.632557526E0,-2.351909180E0,-5.478607178E-2,7.037421235E0
2.055039042E0,-6.541397095E0,-2.512974243E0,-1.975891113E-1,7.010275098E0
2.065050042E0,-6.544839935E0,-2.676733704E0,-2.528242493E-1,7.075574408E0
2.075060042E0,-6.692582703E0,-2.738255768E0,-2.847079468E-1,7.236695827E0
2.085070042E0,-6.871161346E0,-2.756218414E0,-3.263214111E-1,7.410538702E0
2.095081042E0,-7.128925323E0,-2.757715302E0,-3.376977539E-1,7.651183551E0
2.105091042E0,-7.401807861E0,-2.797382812E0,-3.061134338E-1,7.918700376E0
2.115102042E0,-7.711513824E0,-2.758463745E0,-2.074685669E-1,8.192655913E0
2.125112042E0,-7.950566711E0,-2.776875458E0,-2.430944824E-1,8.425060431E0
2.135123042E0,-8.004754028E0,-3.076402588E0,-4.682263184E-1,8.588339526E0
2.145133042E0,-7.979456635E0,-3.395389252E0,-5.450166321E-1,8.688926256E0
2.155144042E0,-7.828720093E0,-3.588936768E0,-3.306623840E-1,8.618507007E0
2.165154042E0,-7.686815186E0,-3.609294434E0,1.437011719E-2,8.492016280E0
2.175164042E0,-7.617808685E0,-3.646716614E0,2.713856506E-1,8.450041503E0
2.185175042E0,-7.499255219E0,-3.727997589E0,3.875440979E-1,8.383733374E0
2.195185042E0,-7.436984711E0,-3.808380432E0,3.794609070E-1,8.363999861E0
2.205196042E0,-7.537425842E0,-3.901486816E0,2.797682190E-1,8.491917214E0
2.215206042E0,-7.889793091E0,-4.060755615E0,2.020797729E-2,8.873498721E0
2.225217042E0,-8.183033295E0,-4.312831421E0,-2.975811768E-1,9.254788130E0
2.235227042E0,-8.522527313E0,-4.642146606E0,-5.986051941E-1,9.723236349E0
2.245237042E0,-9.025481415E0,-4.964127045E0,-9.827064514E-1,1.034734672E1
2.255248042E0,-8.936266937E0,-4.720134430E0,-8.086184692E-1,1.013856004E1
2.265258042E0,-8.812624054E0,-3.917952576E0,-1.417552185E-1,9.645350675E0
2.275267792E0,-8.952283630E0,-3.126398621E0,4.870870972E-1,9.494998914E0
2.285277792E0,-9.498348083E0,-2.786754913E0,9.812095642E-1,9.947230342E0
2.295288792E0,-1.038719971E1,-2.863844604E0,1.391206970E0,1.086420639E1
2.305298792E0,-1.134011810E1,-3.208727417E0,1.653311920E0,1.190074160E1
2.315308792E0,-1.214993408E1,-3.601211243E0,1.595083008E0,1.277238859E1
2.325319792E0,-1.287023621E1,-3.653302917E0,1.313069458E0,1.344298157E1
2.335329792E0,-1.342139008E1,-3.573219452E0,8.866062927E-1,1.391717211E1
2.345340792E0,-1.383737503E1,-3.554807739E0,3.809577942E-1,1.429177157E1
2.355350792E0,-1.381836456E1,-3.099454651E0,5.628295898E-2,1.416181436E1
2.365361792E0,-1.398766251E1,-2.407593384E0,-2.140548706E-1,1.419496487E1
2.375371792E0,-1.391551254E1,-1.759740601E0,-2.749781799E-1,1.402903380E1
2.385382792E0,-1.338426727E1,-1.190474396E0,-4.775070190E-1,1.344558860E1
2.395392792E0,-1.264315842E1,-9.933343506E-1,-8.637039185E-1,1.271149686E1
2.405402792E0,-1.163635208E1,-1.360670471E0,-1.026415558E0,1.176051201E1
2.415413792E0,-1.042522064E1,-1.579515381E0,-6.887178040E-1,1.056666582E1
2.425423792E0,-9.235045624E0,-1.449136505E0,3.442840576E-3,9.348051997E0
2.435434792E0,-8.364456024E0,-1.392404480E0,6.927593994E-1,8.507809965E0
2.445444792E0,-7.905360718E0,-1.366807709E0,1.254840546E0,8.120191881E0
2.455455792E0,-7.574848022E0,-1.286574554E0,1.575174408E0,7.843135283E0
2.465465792E0,-7.315736847E0,-1.106349335E0,1.589694214E0,7.567769959E0
2.475475792E0,-7.030280457E0,-7.352709961E-1,1.362017670E0,7.198649795E0
2.485486792E0,-6.741231537E0,-4.438270569E-1,8.896000671E-1,6.814145095E0
2.495496792E0,-6.618636475E0,-2.644999695E-1,3.035687256E-1,6.630871963E0
2.505507792E0,-6.636150055E0,-2.375559998E-1,-2.158511353E-1,6.643907895E0
2.515517792E0,-6.653963013E0,-1.648072815E-1,-6.873706055E-1,6.691402212E0
2.525528792E0,-6.499484253E0,-6.152206421E-2,-9.015751648E-1,6.562005661E0
2.535538792E0,-6.335575104E0,4.864883423E-2,-8.532257080E-1,6.392954928E0
2.545548792E0,-6.406377869E0,1.077758789E-2,-7.174580383E-1,6.446436193E0
2.555559792E0,-6.882388000E0,-3.266207886E-1,-3.980223083E-1,6.901620642E0
2.565569792E0,-7.576494598E0,-6.155200195E-1,1.764830017E-1,7.603504557E0
2.575580792E0,-8.162675629E0,-7.288343811E-1,7.966433716E-1,8.233778819E0
2.585590792E0,-8.727900238E0,-8.184979248E-1,1.243464203E0,8.853947405E0
2.595601792E0,-9.233997803E0,-9.234297180E-1,1.354982300E0,9.378454825E0
2.605611792E0,-9.614656219E0,-9.830058289E-1,1.230441284E0,9.742787098E0
2.615621792E0,-9.956096191E0,-9.618997192E-1,1.008452911E0,1.005316267E1
2.625632792E0,-1.016266663E1,-9.024732971E-1,7.593708801E-1,1.023087949E1
2.635642792E0,-1.048883835E1,-8.243357849E-1,6.081852722E-1,1.053874512E1
2.645653792E0,-1.097712296E1,-8.545729065E-1,5.879772949E-1,1.102602560E1
2.655663792E0,-1.152453461E1,-9.237290955E-1,5.860313416E-1,1.157633820E1
2.665674792E0,-1.215487381E1,-9.717791748E-1,5.950126648E-1,1.220816744E1
2.675684792E0,-1.274988647E1,-1.018931122E0,6.068380737E-1,1.280492398E1
2.685694792E0,-1.319805450E1,-1.129551086E0,5.607339478E-1,1.325816544E1
2.695705792E0,-1.356404343E1,-1.244961090E0,4.397854614E-1,1.362815517E1
2.705715792E0,-1.407777512E1,-1.373543701E0,2.426454163E-1,1.414670461E1
2.715726792E0,-1.480511261E1,-1.479673004E0,5.239105225E-2,1.487896288E1
2.725736792E0,-1.548694473E1,-1.625619507E0,-1.215472412E-1,1.557250364E1
2.735747792E0,-1.557600952E1,-1.042881317E0,-1.929487610E-1,1.561207556E1
2.745757792E0,-1.539593399E1,-5.249583435E-1,-2.553689575E-1,1.540699770E1
2.755768792E0,-1.555744812E1,-6.268963623E-1,-2.206411743E-1,1.557163683E1
2.765778792E0,-1.606923386E1,-1.423240356E0,-1.916015625E-2,1.613214979E1
2.775788792E0,-1.626053604E1,-2.207309875E0,3.577560425E-1,1.641356874E1
2.785799792E0,-1.615740051E1,-2.544109497E0,8.396040344E-1,1.637800413E1
2.795809792E0,-1.592613144E1,-2.506238251E0,1.368903351E0,1.618013564E1
2.805820792E0,-1.554637115E1,-1.916315002E0,1.864672394E0,1.577462907E1
2.815830792E0,-1.519580017E1,-9.379495239E-1,2.175426178E0,1.537935536E1
2.825841792E0,-1.495584915E1,-2.007325745E-1,2.046544189E0,1.509655790E1
2.835851792E0,-1.479987350E1,-1.625619507E-1,1.528471527E0,1.487947940E1
2.845861792E0,-1.445588882E1,-7.201524353E-1,8.955876160E-1,1.450149711E1
2.855872792E0,-1.402343811E1,-1.760339355E0,4.622387695E-1,1.414104932E1
2.865882792E0,-1.364188156E1,-2.724634094E0,3.635939026E-1,1.391606137E1
2.875893792E0,-1.318832474E1,-3.337160339E0,7.949967957E-1,1.362719958E1
2.885903792E0,-1.278251862E1,-3.618724823E0,1.430425415E0,1.336166413E1
2.895914792E0,-1.242925323E1,-3.678899689E0,2.007176056E0,1.311676007E1
2.905924792E0,-1.225546463E1,-3.798950043E0,2.480791168E0,1.306838779E1
2.915934792E0,-1.220726486E1,-3.866160278E0,2.726130981E0,1.309184100E1
2.925945792E0,-1.209335175E1,-3.790866852E0,2.743345184E0,1.296710341E1
2.935955792E0,-1.194066925E1,-3.518732758E0,2.499951324E0,1.269688225E1
2.945966792E0,-1.174412796E1,-3.204685822E0,2.113754425E0,1.235566714E1
2.955976792E0,-1.152992340E1,-2.941083984E0,1.782493286E0,1.203189058E1
2.965987792E0,-1.131721573E1,-2.771187286E0,1.530866547E0,1.175169789E1
2.975997792E0,-1.116842514E1,-2.641856232E0,1.472487946E0,1.157071066E1
2.986007792E0,-1.100062408E1,-2.525548096E0,1.535506897E0,1.139078157E1
2.996018792E0,-1.066232758E1,-2.497855682E0,1.482816467E0,1.105093919E1
3.006028792E0,-1.038465500E1,-2.526146851E0,1.286125488E0,1.076459921E1
3.016039792E0,-1.021745270E1,-2.646646271E0,1.066532135E0,1.060841962E1
3.026049792E0,-1.007045837E1,-2.824626160E0,9.021739197E-1,1.049793135E1
3.036060792E0,-9.862391052E0,-2.957549744E0,8.545729065E-1,1.033170618E1
3.046070792E0,-9.645192719E0,-3.133134613E0,8.970845032E-1,1.018091527E1
3.056080792E0,-9.326206055E0,-3.315455475E0,9.566606140E-1,9.944122078E0
3.066091792E0,-9.042545929E0,-3.423680420E0,1.034648438E0,9.724182325E0
3.076101792E0,-8.822353821E0,-3.507206726E0,1.114731903E0,9.559134541E0
3.086112792E0,-8.625064087E0,-3.595822449E0,1.135688324E0,9.413365899E0
3.096122792E0,-8.347541199E0,-3.602259064E0,1.053359528E0,9.152446707E0
3.106133792E0,-8.111332397E0,-3.586392059E0,9.611512756E-1,8.920747336E0
3.116143792E0,-7.899822235E0,-3.600612488E0,8.583151245E-1,8.724007479E0
3.126153792E0,-7.673941956E0,-3.626358948E0,7.605683899E-1,8.521638847E0
3.136164792E0,-7.462581482E0,-3.628753967E0,7.331753540E-1,8.330397579E0
3.146174792E0,-7.248676300E0,-3.655697937E0,7.186555481E-1,8.150085969E0
3.156185792E0,-7.044800262E0,-3.747606812E0,7.099736023E-1,8.011106669E0
3.166195792E0,-6.876101074E0,-3.815266113E0,6.126759338E-1,7.887483331E0
3.176206792E0,-6.733148346E0,-3.882775726E0,4.656816101E-1,7.786404392E0
3.186216792E0,-6.593039703E0,-3.967499542E0,2.722837830E-1,7.699569053E0
3.196226792E0,-6.449787598E0,-4.099225616E0,-1.930984497E-2,7.642236818E0
3.206237792E0,-6.306535492E0,-4.211192780E0,-2.941383362E-1,7.589008624E0
3.216247792E0,-6.282884674E0,-4.244872742E0,-4.942721558E-1,7.598545215E0
3.226258792E0,-6.356980591E0,-4.297862549E0,-6.039939880E-1,7.697248434E0
3.236268792E0,-6.406677246E0,-4.346661072E0,-7.024891663E-1,7.773832185E0
3.246279792E0,-6.347101135E0,-4.339176636E0,-7.893086243E-1,7.728981485E0
3.256289792E0,-6.152505798E0,-4.289629669E0,-7.415579224E-1,7.536853352E0
3.266299792E0,-5.886209564E0,-4.208947449E0,-6.265969849E-1,7.263286132E0
3.276311250E0,-5.660179596E0,-4.097279663E0,-4.755610657E-1,7.003677036E0
3.286321250E0,-5.708079987E0,-4.071682892E0,-3.329077148E-1,7.019373637E0
3.296332250E0,-6.093827820E0,-4.047882385E0,-3.073109436E-1,7.322194297E0
3.306342250E0,-6.565796356E0,-4.163891144E0,-5.158273315E-1,7.791902790E0
3.316353250E0,-7.276668091E0,-4.623734894E0,-9.596543884E-1,8.674661919E0
3.326363250E0,-8.007747803E0,-5.453309784E0,-1.565594330E0,9.813954253E0
3.336373250E0,-8.314010925E0,-5.946234741E0,-1.679357758E0,1.035860646E1
3.346384250E0,-8.557554474E0,-5.634732513E0,-1.218316498E0,1.031824811E1
3.356394250E0,-9.120234375E0,-5.062322845E0,-5.914201355E-1,1.044775409E1
3.366405250E0,-9.473499756E0,-4.296814728E0,3.707789612E-1,1.040900050E1
3.376415250E0,-9.937385101E0,-3.658691711E0,1.179696808E0,1.065501442E1
3.386426250E0,-1.043869263E1,-3.428021393E0,1.916315002E0,1.115302191E1
3.396436250E0,-1.099957626E1,-3.451223145E0,2.496807861E0,1.179557835E1
3.406446250E0,-1.125344833E1,-3.700305176E0,2.722089386E0,1.215492198E1
3.416457250E0,-1.136556519E1,-4.148622894E0,2.470013580E0,1.234860765E1
3.426467250E0,-1.158231445E1,-4.605622559E0,2.042502594E0,1.263066048E1
3.436478250E0,-1.174472672E1,-4.775668945E0,1.726060638E0,1.279550330E1
3.446488250E0,-1.200264038E1,-4.441414032E0,1.534309387E0,1.288967183E1
3.456499250E0,-1.243583954E1,-3.841761017E0,1.328637085E0,1.308336766E1
3.466509250E0,-1.280317566E1,-3.281625824E0,9.355545044E-1,1.325011839E1
3.476519250E0,-1.302546341E1,-2.805016937E0,3.324586487E-1,1.332821615E1
3.486530250E0,-1.286873932E1,-2.257006531E0,-3.987707520E-1,1.307124892E1
3.496540250E0,-1.227701981E1,-1.791773987E0,-1.020727386E0,1.244899810E1
3.506551250E0,-1.162288010E1,-1.612446899E0,-1.351988525E0,1.181182457E1
3.516561250E0,-1.087548431E1,-1.591789856E0,-1.343755646E0,1.107319436E1
3.526572250E0,-1.001252884E1,-1.446891174E0,-7.197033691E-1,1.014210041E1
3.536582250E0,-9.450298004E0,-1.199006653E0,1.266366577E-1,9.526898035E0
3.546592250E0,-9.015601959E0,-1.026116180E0,9.172924805E-1,9.120055844E0
3.556603250E0,-8.791667633E0,-9.707313538E-1,1.524280243E0,8.975475998E0
3.566613250E0,-8.641829224E0,-8.681945801E-1,1.979932709E0,8.908148387E0
3.576624250E0,-8.513845367E0,-7.827223206E-1,2.269879761E0,8.845935298E0
3.586634250E0,-8.313412170E0,-6.538403320E-1,2.279609528E0,8.645053423E0
3.596645250E0,-8.117020569E0,-5.658233643E-1,2.113155670E0,8.406640582E0
3.606655250E0,-8.093369751E0,-5.767506409E-1,1.722318420E0,8.294676363E0
3.616665250E0,-8.173453217E0,-5.481600952E-1,1.199904785E0,8.279226321E0
3.626676250E0,-8.290060730E0,-6.053411865E-1,7.794291687E-1,8.348595971E0
3.636686250E0,-8.382718048E0,-4.087998962E-1,5.846841431E-1,8.413021739E0
3.646697250E0,-8.468489685E0,-1.694476318E-1,5.423222351E-1,8.487528701E0
3.656707250E0,-8.485554199E0,-1.633103943E-1,8.035290527E-1,8.525078257E0
3.666717250E0,-8.782985687E0,-2.507286072E-1,1.162033539E0,8.863070820E0
3.676728250E0,-9.429191895E0,-3.543132019E-1,1.376836853E0,9.535768315E0
3.686738250E0,-1.000489471E1,-3.218307495E-1,1.522184601E0,1.012514391E1
3.696749250E0,-1.045545776E1,-1.061293030E-1,1.566492462E0,1.057268930E1
3.706759250E0,-1.091679840E1,-6.286926270E-3,1.460512848E0,1.101406485E1
3.716770250E0,-1.116917358E1,2.377056885E-1,1.320104828E0,1.124942751E1
3.726780250E0,-1.130179779E1,4.695735168E-1,1.161285095E0,1.137100328E1
3.736790250E0,-1.162452667E1,5.424719238E-1,9.964778137E-1,1.167976302E1
3.746801250E0,-1.218091965E1,5.114863586E-1,8.904981995E-1,1.222413223E1
3.756811250E0,-1.285481827E1,3.454815674E-1,8.472381592E-1,1.288733963E1
3.766822250E0,-1.345177689E1,1.398092651E-1,8.439450073E-1,1.347894993E1
3.776832250E0,-1.398781219E1,6.331832886E-2,8.517288208E-1,1.401386247E1
3.786843250E0,-1.439990524E1,2.918930054E-2,8.265811157E-1,1.442363891E1
3.796853250E0,-1.476634323E1,-3.427871704E-2,5.870791626E-1,1.477804890E1
3.806863250E0,-1.504027359E1,-1.342707825E-1,2.673440552E-1,1.504324869E1
3.816874250E0,-1.545865356E1,-3.784130859E-1,1.505868530E-1,1.546401768E1
3.826884250E0,-1.586296280E1,-5.896238708E-1,4.189787292E-1,1.587944546E1
3.836895250E0,-1.604453522E1,-5.490582275E-1,8.583151245E-1,1.607685542E1
3.846905250E0,-1.622371262E1,-5.626799011E-1,1.222058716E0,1.627940070E1
3.856916250E0,-1.643462402E1,-8.406518555E-1,1.339863739E0,1.651056623E1
3.866926250E0,-1.675286224E1,-1.458716583E0,1.304986267E0,1.686680873E1
3.876936250E0,-1.679851730E1,-2.273172913E0,1.213676147E0,1.699501422E1
3.886947250E0,-1.648566788E1,-2.840642853E0,1.271006927E0,1.677682794E1
3.896957250E0,-1.600277206E1,-3.018023987E0,1.589095459E0,1.636222500E1
3.906968250E0,-1.546494049E1,-2.712658997E0,1.905238037E0,1.581622064E1
3.916978250E0,-1.495779510E1,-2.087109833E0,2.057321777E0,1.524218602E1
3.926988250E0,-1.444855408E1,-1.578916626E0,2.068398743E0,1.468100698E1
3.936999250E0,-1.392883484E1,-1.589544525E0,1.801952820E0,1.413457200E1
3.947009250E0,-1.348515747E1,-2.036065979E0,1.348395996E0,1.370449592E1
3.957020250E0,-1.310988785E1,-2.707270203E0,1.013841705E0,1.342484064E1
3.967030250E0,-1.260588593E1,-3.292403412E0,8.405021667E-1,1.305583104E1
3.977041250E0,-1.233000961E1,-3.923341370E0,9.012757874E-1,1.297050664E1
3.987051250E0,-1.231578918E1,-4.612059174E0,1.158740387E0,1.320198592E1
3.997061250E0,-1.244092896E1,-5.072052612E0,1.414408722E0,1.350936649E1
4.007072250E0,-1.252819748E1,-5.144052887E0,1.570534058E0,1.363391321E1
4.017082250E0,-1.266171982E1,-4.901108093E0,1.639390869E0,1.367580388E1
4.027093250E0,-1.266186951E1,-4.569547577E0,1.580563202E0,1.355366683E1
4.037103250E0,-1.237686218E1,-4.424798584E0,1.439107361E0,1.322257880E1
4.047114250E0,-1.207508972E1,-4.349205780E0,1.429527283E0,1.291382712E1
4.057124250E0,-1.179397430E1,-4.232149200E0,1.585203552E0,1.263019347E1
4.067134250E0,-1.145986908E1,-4.076173553E0,1.787433014E0,1.229384834E1
4.077145250E0,-1.113115265E1,-3.938759308E0,1.929337921E0,1.196405989E1
4.087155250E0,-1.083656525E1,-3.818559265E0,1.946252747E0,1.165334463E1
4.097166250E0,-1.051458481E1,-3.638034668E0,1.791474609E0,1.126947963E1
4.107176250E0,-1.025577301E1,-3.547323303E0,1.496887207E0,1.095468183E1
4.117187250E0,-9.982441406E0,-3.579805756E0,1.182241516E0,1.067060639E1
4.127197250E0,-9.660610657E0,-3.605701904E0,9.894424438E-1,1.035893242E1
4.137207250E0,-9.468859406E0,-3.582200775E0,9.593550110E-1,1.016916038E1
4.147218250E0,-9.300758972E0,-3.607797546E0,1.160237274E0,1.004323011E1
4.157228250E0,-9.211843872E0,-3.662882996E0,1.443897400E0,1.001796482E1
4.167239250E0,-9.082961884E0,-3.690575409E0,1.624871063E0,9.937844303E0
4.177249250E0,-8.910071411E0,-3.661236420E0,1.649120636E0,9.773107159E0
4.187259250E0,-8.711584167E0,-3.632346497E0,1.475032654E0,9.553081236E0
4.197270250E0,-8.455167389E0,-3.544179840E0,1.269510040E0,9.255415823E0
4.207280250E0,-8.251141663E0,-3.407364349E0,1.045426025E0,8.988013469E0
4.217291250E0,-8.069569244E0,-3.389401703E0,7.414082336E-1,8.783830478E0
4.227301250E0,-7.828869781E0,-3.418141937E0,4.828958130E-1,8.556172317E0
4.237312250E0,-7.539671173E0,-3.385958862E0,4.043092346E-1,8.274951648E0
4.247322250E0,-7.265441437E0,-3.313509521E0,4.584965515E-1,7.998512593E0
4.257332250E0,-7.069349213E0,-3.250939636E0,6.074368286E-1,7.804696426E0
4.267343250E0,-6.894363098E0,-3.163970490E0,7.541317749E-1,7.623100847E0
4.277353125E0,-6.745572510E0,-3.083288269E0,7.089257812E-1,7.450636939E0
4.287364125E0,-6.544540558E0,-3.059038696E0,4.161346436E-1,7.236152078E0
4.297374125E0,-6.325545959E0,-3.074456635E0,6.182144165E-2,7.033394428E0
4.307384125E0,-6.132896576E0,-3.118764496E0,-2.784210205E-1,6.885973472E0
4.317395125E0,-6.030958557E0,-3.219205627E0,-6.478527832E-1,6.866983269E0
4.327405125E0,-6.014792175E0,-3.314257965E0,-9.839039612E-1,6.937585875E0
4.337416125E0,-5.879922638E0,-3.427871704E0,-1.237776031E0,6.917794746E0
4.347426125E0,-5.786516876E0,-3.559298401E0,-1.387315063E0,6.933759857E0
4.357437125E0,-5.793552246E0,-3.759432220E0,-1.329535217E0,7.033224164E0
4.367447125E0,-5.752537537E0,-4.016896820E0,-1.019380188E0,7.089871941E0
4.377457125E0,-5.615272980E0,-4.221670990E0,-5.444178772E-1,7.046288910E0
4.387468125E0,-5.359155579E0,-4.312382355E0,-1.005908203E-1,6.879484617E0
4.397478125E0,-5.024750977E0,-4.333638153E0,2.392025757E-1,6.639710829E0
4.407489125E0,-4.847369843E0,-4.318070526E0,4.249662781E-1,6.505637847E0
4.417499125E0,-5.144801331E0,-4.487069092E0,2.725831604E-1,6.832062013E0
4.427510125E0,-5.990243225E0,-5.000651093E0,-2.115101624E-1,7.806040084E0
4.437520125E0,-6.977140961E0,-5.741759949E0,-9.482780457E-1,9.085567376E0
4.447530125E0,-7.389383698E0,-6.192921753E0,-1.553619232E0,9.765705504E0
4.457541125E0,-7.497159576E0,-6.149961090E0,-1.663191376E0,9.838476949E0
4.467551125E0,-7.546706543E0,-5.783373413E0,-1.266516266E0,9.591884650E0
4.477562125E0,-7.854616241E0,-5.199138336E0,-4.451742554E-1,9.429963725E0
4.487572125E0,-8.484207001E0,-4.672234039E0,4.122427368E-1,9.694404748E0
4.497582125E0,-9.337432709E0,-4.456083527E0,1.138382721E0,1.040866203E1
4.507593125E0,-1.031160690E1,-4.353846130E0,1.774410095E0,1.133286126E1
4.517603125E0,-1.122366028E1,-4.455185394E0,2.098785553E0,1.225659528E1
4.527614125E0,-1.202389618E1,-4.730313263E0,1.893712006E0,1.305894667E1
4.537624125E0,-1.278296768E1,-4.967719574E0,1.467398529E0,1.379259798E1
4.547635125E0,-1.357961105E1,-4.887486420E0,1.082698517E0,1.447292631E1
4.557645125E0,-1.431143921E1,-4.651876373E0,7.135661316E-1,1.506540483E1
4.567655125E0,-1.513966690E1,-4.288432159E0,5.257067871E-1,1.574409514E1
4.577666125E0,-1.568348602E1,-3.727548523E0,5.773493958E-1,1.613070625E1
4.587676125E0,-1.598421066E1,-3.128643951E0,6.399192810E-1,1.630008896E1
4.597687125E0,-1.584425171E1,-2.596500549E0,5.066963196E-1,1.606358828E1
4.607697125E0,-1.504057297E1,-2.305056610E0,1.728904724E-1,1.521716177E1
4.617708125E0,-1.386910904E1,-2.139351196E0,-1.642085266E-1,1.403410038E1
4.627718125E0,-1.266576141E1,-2.036814423E0,-2.055226135E-1,1.283013502E1
4.637728125E0,-1.159668457E1,-2.070793762E0,5.119354248E-2,1.178023347E1
4.647739125E0,-1.076172089E1,-2.072140961E0,6.212081909E-1,1.097698976E1
4.657749125E0,-1.019574783E1,-1.974394226E0,1.349593506E0,1.047248342E1
4.667760125E0,-9.860894165E0,-1.857187958E0,1.956581268E0,1.022323780E1
4.677770125E0,-9.593400421E0,-1.722617798E0,2.151625671E0,9.981494715E0
4.687780125E0,-9.320068817E0,-1.454824677E0,2.052831116E0,9.653720173E0
4.697791125E0,-8.939709778E0,-9.868977356E-1,1.789977722E0,9.170408840E0
4.707801125E0,-8.402476959E0,-7.806266785E-1,1.201102295E0,8.523710682E0
4.717812125E0,-7.795339508E0,-9.641450500E-1,5.435197449E-1,7.873519381E0
4.727822125E0,-7.409441986E0,-1.133742371E0,2.390528870E-1,7.499489889E0
4.737832125E0,-7.190148010E0,-1.196911011E0,2.659968567E-1,7.293941233E0
4.747843125E0,-7.247029724E0,-1.154698792E0,5.617817688E-1,7.359916296E0
4.757853125E0,-7.563321991E0,-1.091829529E0,7.990383911E-1,7.683384255E0
4.767864125E0,-7.867938538E0,-1.164428558E0,1.039887543E0,8.021328867E0
4.777874125E0,-8.192313995E0,-1.049617310E0,1.057999878E0,8.326768211E0
4.787885125E0,-8.438551941E0,-9.065148926E-1,8.075706482E-1,8.525438315E0
4.797895125E0,-8.697214050E0,-7.649093628E-1,5.635780334E-1,8.748956439E0
4.807905125E0,-9.216484222E0,-5.706134033E-1,3.945794678E-1,9.242557765E0
4.817916125E0,-9.740694122E0,-3.519181824E-1,3.100053406E-1,9.751977835E0
4.827926125E0,-1.048898804E1,-3.851490784E-1,3.001258850E-1,1.050034692E1
4.837937125E0,-1.110929810E1,-2.800675964E-1,2.327659607E-1,1.111526527E1
4.847947125E0,-1.165656006E1,-4.520599365E-2,1.835183716E-1,1.165809225E1
4.857958125E0,-1.223540634E1,8.981323242E-2,2.267784119E-1,1.223783736E1
4.867968125E0,-1.292262726E1,1.591191101E-1,2.332150269E-1,1.292571094E1
4.877978125E0,-1.372810226E1,1.848655701E-1,1.553768921E-1,1.373022611E1
4.887989125E0,-1.463761093E1,2.067201233E-1,3.787124634E-2,1.463911955E1
4.897999125E0,-1.540102341E1,1.871109009E-1,-1.095721436E-1,1.540254974E1
4.908010125E0,-1.586281311E1,1.444496155E-1,-3.216810608E-1,1.586673199E1
4.918020125E0,-1.612252304E1,1.481918335E-1,-4.706213379E-1,1.613007112E1
4.928030125E0,-1.639585464E1,2.050735474E-1,-4.930746460E-1,1.640454898E1
4.938041125E0,-1.665421738E1,2.351609802E-1,-4.914280701E-1,1.666312572E1
4.948051125E0,-1.684656738E1,1.877096558E-1,-3.026705933E-1,1.685033166E1
4.958062125E0,-1.692695023E1,1.062789917E-1,3.128494263E-2,1.692731278E1
4.968072125E0,-1.690075470E1,-1.047821045E-1,3.047662354E-1,1.690382712E1
4.978082125E0,-1.684028046E1,-6.248007202E-1,5.661227417E-1,1.686137351E1
4.988093125E0,-1.684761520E1,-1.504970398E0,8.294252014E-1,1.693502348E1
4.998103125E0,-1.661095734E1,-2.440075836E0,9.107061768E-1,1.681390078E1
5.008114125E0,-1.630050293E1,-3.074756012E0,1.042731628E0,1.662070424E1
5.018124125E0,-1.583332443E1,-3.187621307E0,1.301393738E0,1.620335514E1
5.028135125E0,-1.526660294E1,-2.765798492E0,1.698218536E0,1.560777860E1
5.038145125E0,-1.485750366E1,-2.228415985E0,2.078876953E0,1.516683824E1
5.048155125E0,-1.465781891E1,-2.105222168E0,2.150577850E0,1.496357580E1
5.058166125E0,-1.447145645E1,-2.551294556E0,1.823208618E0,1.480730379E1
5.068176125E0,-1.434766388E1,-3.309767303E0,1.332379303E0,1.478462894E1
5.078187125E0,-1.431533112E1,-3.968247986E0,9.493258667E-1,1.488545991E1
5.088197125E0,-1.417492310E1,-4.634512482E0,8.101153564E-1,1.493530842E1
5.098207125E0,-1.392344604E1,-5.374124451E0,9.419911194E-1,1.495429405E1
5.108218125E0,-1.341465408E1,-5.802383881E0,1.267564087E0,1.467062785E1
5.118228125E0,-1.270976990E1,-5.969286804E0,1.679956512E0,1.414188423E1
5.128239125E0,-1.183708466E1,-5.944887543E0,2.064806213E0,1.340603169E1
5.138249125E0,-1.102816681E1,-5.873186646E0,2.256258087E0,1.269667221E1
5.148260125E0,-1.051308792E1,-5.809868317E0,2.273472290E0,1.222490342E1
5.158270125E0,-1.013811768E1,-5.743556213E0,2.077679443E0,1.183581936E1
5.168280125E0,-9.901010742E0,-5.621260529E0,1.708397369E0,1.151291471E1
5.178291125E0,-9.636211395E0,-5.339396667E0,1.395248566E0,1.110461370E1
5.188301125E0,-9.508826294E0,-4.976251831E0,1.118474121E0,1.079035885E1
5.198312125E0,-9.682465210E0,-4.611310730E0,8.704399109E-1,1.075973907E1
5.208322125E0,-9.962832184E0,-4.320615234E0,7.203021240E-1,1.088322453E1
5.218332125E0,-1.019889130E1,-4.186194763E0,6.815327454E-1,1.104563702E1
5.228343125E0,-1.028975235E1,-4.127666473E0,6.005511475E-1,1.110303092E1
5.238353125E0,-1.022778122E1,-3.991898804E0,5.522016907E-1,1.099307470E1
5.248364125E0,-1.017359390E1,-3.846700745E0,4.372407532E-1,1.088532494E1
5.258374125E0,-1.010413834E1,-3.725752258E0,2.865042114E-1,1.077297202E1
5.268384125E0,-1.001163071E1,-3.590882721E0,1.586700439E-1,1.063731001E1
5.278395000E0,-9.899962921E0,-3.542233887E0,1.824705505E-1,1.051617717E1
5.288405000E0,-9.755812683E0,-3.514391785E0,3.122506714E-1,1.037421473E1
5.298416000E0,-9.601184235E0,-3.482358398E0,5.132826233E-1,1.022609494E1
5.308426000E0,-9.426048431E0,-3.523522797E0,7.478448486E-1,1.009083118E1
5.318436000E0,-9.258247375E0,-3.530109100E0,9.846524048E-1,9.957226275E0
5.328447000E0,-9.110654297E0,-3.486549683E0,1.233884125E0,9.832727009E0
5.338457000E0,-9.019942932E0,-3.387755127E0,1.364712067E0,9.731325415E0
5.348468000E0,-8.944200439E0,-3.306623840E0,1.227896576E0,9.614583336E0
5.358478000E0,-8.807235260E0,-3.348386993E0,9.172924805E-1,9.466811178E0
5.368489000E0,-8.575517120E0,-3.454665985E0,5.791456604E-1,9.263348242E0
5.378499000E0,-8.337512054E0,-3.601061554E0,2.794688416E-1,9.086245342E0
5.388509000E0,-8.035140839E0,-3.720513153E0,1.294807434E-1,8.855646316E0
5.398520000E0,-7.665559387E0,-3.757486267E0,1.064286804E-1,8.537612713E0
5.408530000E0,-7.344926147E0,-3.806733856E0,1.692979431E-1,8.274528661E0
5.418541000E0,-7.075636139E0,-3.919898529E0,3.005749512E-1,8.094478152E0
5.428551000E0,-6.863078156E0,-4.078269196E0,4.285588074E-1,7.994859852E0
5.438561000E0,-6.721173248E0,-4.295018463E0,4.849914551E-1,7.991030606E0
5.448572000E0,-6.528523865E0,-4.471052399E0,3.980223083E-1,7.922774461E0
5.458582000E0,-6.179449768E0,-4.460723877E0,2.622546387E-1,7.625774350E0
5.468593000E0,-5.888604584E0,-4.622387695E0,1.151106262E-1,7.487014252E0
5.478603000E0,-5.569468231E0,-4.820874939E0,-1.621128845E-1,7.367909618E0
5.488614000E0,-5.157225494E0,-4.791236572E0,-4.891827393E-1,7.056360425E0
5.498624000E0,-4.642445984E0,-4.654121704E0,-5.992039490E-1,6.600924096E0
5.508634000E0,-4.083208923E0,-4.532724152E0,-5.804928589E-1,6.128226114E0
5.518645000E0,-3.751798096E0,-4.386178894E0,-6.456074524E-1,5.807870800E0
5.528655000E0,-3.798650665E0,-4.483476562E0,-7.420069885E-1,5.922996145E0
5.538666000E0,-4.337979126E0,-4.699627075E0,-9.268725586E-1,6.462480196E0
5.548676000E0,-4.919220428E0,-4.962181091E0,-1.334774323E0,7.113620267E0
5.558686000E0,-5.415139160E0,-5.321583710E0,-1.907333679E0,7.828212252E0
5.568697000E0,-5.592370605E0,-5.593418427E0,-2.304457855E0,8.238413967E0
5.578707000E0,-6.499035187E0,-5.676046600E0,-2.673889618E0,9.033529158E0
5.588718000E0,-7.002737732E0,-5.561534729E0,-2.675536194E0,9.334211172E0
5.598728000E0,-7.272476807E0,-5.018164673E0,-1.982776794E0,9.055512101E0
5.608738000E0,-7.902816010E0,-4.462819519E0,-1.029409332E0,9.134054002E0
5.618749000E0,-8.609795837E0,-4.188739471E0,-1.893562317E-1,9.576532697E0
5.628759000E0,-9.500892792E0,-4.351151733E0,4.616400146E-1,1.046004765E1
5.638770000E0,-1.037537430E1,-4.819677429E0,1.025367737E0,1.148603767E1
5.648780000E0,-1.099583405E1,-5.346132660E0,1.485361176E0,1.231648483E1
5.658791000E0,-1.178080170E1,-5.831722870E0,1.678010559E0,1.325186778E1
5.668801000E0,-1.247086670E1,-6.158193970E0,1.757644958E0,1.401910072E1
5.678811000E0,-1.325224182E1,-6.205645294E0,1.800904999E0,1.474364967E1
5.688822000E0,-1.428569275E1,-5.809568939E0,1.738784180E0,1.551951929E1
5.698832000E0,-1.513083527E1,-5.007686462E0,1.485061798E0,1.600701434E1
5.708843000E0,-1.570219711E1,-4.026327209E0,1.008003845E0,1.624150168E1
5.718853000E0,-1.608674744E1,-3.123554535E0,2.805166626E-1,1.638959199E1
5.728863000E0,-1.581461334E1,-2.165696411E0,-3.634442139E-1,1.596634986E1
5.738874000E0,-1.500060608E1,-1.350491638E0,-8.192463684E-1,1.508353987E1
5.748884000E0,-1.383722534E1,-8.750802612E-1,-1.193318481E0,1.391612660E1
5.758895000E0,-1.279524216E1,-8.373587036E-1,-1.278790741E0,1.288622122E1
5.768905000E0,-1.197210388E1,-9.623487854E-1,-8.590635681E-1,1.204140261E1
5.778915000E0,-1.123473724E1,-1.035396881E0,-2.544708252E-1,1.128521701E1
5.788926000E0,-1.075288925E1,-9.984237671E-1,3.845503235E-1,1.080598705E1
5.798936000E0,-1.032672546E1,-9.964778137E-1,6.515950012E-1,1.039513362E1
5.808947000E0,-9.992021484E0,-9.184899902E-1,5.318440247E-1,1.004823245E1
5.818957000E0,-9.469907227E0,-5.013075256E-1,1.219963074E-1,9.483951456E0
5.828967000E0,-8.920100555E0,-3.023712158E-1,-6.108796692E-1,8.946105088E0
5.838978000E0,-8.536897430E0,-3.935316467E-1,-1.160237274E0,8.624362900E0
5.848988000E0,-8.155041504E0,-6.679110718E-1,-1.340462494E0,8.291420073E0
5.858999000E0,-7.694598999E0,-8.243357849E-1,-1.211281128E0,7.832852942E0
5.869009000E0,-7.519014130E0,-8.614585876E-1,-6.978488159E-1,7.600307714E0
5.879020000E0,-7.653733978E0,-9.425898743E-1,1.363664246E-1,7.712763142E0
5.889030000E0,-8.028404846E0,-1.010698242E0,9.273216248E-1,8.144735767E0
5.899040000E0,-8.484207001E0,-9.545649719E-1,1.540746002E0,8.675647582E0
5.909051000E0,-8.781638489E0,-7.102729797E-1,1.887574768E0,9.010249761E0
5.919061000E0,-8.963061218E0,-4.345463562E-1,1.920206909E0,9.176736430E0
5.929072000E0,-9.328750763E0,-2.996768188E-1,1.586251373E0,9.467396179E0
5.939082000E0,-9.941875763E0,-4.150868225E-1,1.034049683E0,1.000412163E1
5.949092000E0,-1.070498886E1,-3.103047180E-1,6.141728210E-1,1.072708179E1
5.959103000E0,-1.131482071E1,-1.275347900E-1,1.724414062E-1,1.131685331E1
5.969113000E0,-1.193767548E1,-2.125579834E-2,-2.095642090E-1,1.193953369E1
5.979124000E0,-1.253523285E1,8.187973022E-2,-5.026547241E-1,1.254557407E1
5.989134000E0,-1.301782928E1,1.990859985E-1,-6.719526672E-1,1.303668036E1
5.999144000E0,-1.342363541E1,2.600093079E-1,-7.090754700E-1,1.344486446E1
6.009155000E0,-1.383857254E1,1.968406677E-1,-5.682183838E-1,1.385163197E1
6.019165000E0,-1.429991318E1,-1.796264648E-2,-4.076023865E-1,1.430573239E1
6.029176000E0,-1.468281693E1,-1.543290710E-1,-3.156935120E-1,1.468702123E1
6.039186000E0,-1.501677246E1,-3.137475586E-1,-2.954855347E-1,1.502295591E1
6.049196000E0,-1.536135590E1,-5.161267090E-1,-2.460882568E-1,1.537199405E1
6.059207000E0,-1.563588501E1,-5.824388123E-1,-1.357676697E-1,1.564731823E1
6.069217000E0,-1.565414703E1,-3.671864319E-1,2.664459229E-2,1.565847551E1
6.079228000E0,-1.569231766E1,-9.595046997E-2,1.622625732E-1,1.569344988E1
6.089238000E0,-1.592912521E1,7.110214233E-2,1.459465027E-1,1.592995248E1
6.099248000E0,-1.602402786E1,-6.691085815E-2,7.274871826E-2,1.602433270E1
6.109259000E0,-1.620560028E1,-1.047072601E0,1.094224548E-1,1.623976031E1
6.119269000E0,-1.627969620E1,-2.096240845E0,2.644999695E-1,1.641623264E1
6.129280000E0,-1.620994125E1,-2.869233398E0,6.066883850E-1,1.647309220E1
6.139290000E0,-1.590038498E1,-3.246149597E0,9.508227539E-1,1.625619247E1
6.149300000E0,-1.529504379E1,-2.841690674E0,1.396745453E0,1.561936197E1
6.159311000E0,-1.478071335E1,-1.903741150E0,1.848955078E0,1.501706870E1
6.169321000E0,-1.466081268E1,-1.369801483E0,1.929786987E0,1.485058458E1
6.179332000E0,-1.475287125E1,-1.651665344E0,1.540596313E0,1.492476618E1
6.189342000E0,-1.468820572E1,-2.422562256E0,1.152752838E0,1.493121007E1
6.199353000E0,-1.442220886E1,-3.255280609E0,1.025966492E0,1.482057919E1
6.209363000E0,-1.380324600E1,-3.727099457E0,1.198707275E0,1.434774441E1
6.219373000E0,-1.328442490E1,-4.292922821E0,1.563947754E0,1.404816941E1
6.229384000E0,-1.296394135E1,-4.866380310E0,1.833986206E0,1.396814010E1
6.239394000E0,-1.268402344E1,-5.177583160E0,1.999392242E0,1.384519365E1
6.249405000E0,-1.251921616E1,-5.341791687E0,2.153421936E0,1.378052022E1
6.259415000E0,-1.253837631E1,-5.377267914E0,2.360291748E0,1.384546380E1
6.269425000E0,-1.251442612E1,-5.195994873E0,2.460583191E0,1.377184423E1
6.279436250E0,-1.241024277E1,-4.820725250E0,2.372266846E0,1.352335637E1
6.289446250E0,-1.225815903E1,-4.489613800E0,2.163301392E0,1.323249665E1
6.299457250E0,-1.211760132E1,-4.293222198E0,1.996548157E0,1.300977414E1
6.309467250E0,-1.197584610E1,-4.142186279E0,1.909878387E0,1.281507832E1
6.319477250E0,-1.179382462E1,-4.045487366E0,1.636846161E0,1.257535417E1
6.329488250E0,-1.154968231E1,-4.030967560E0,1.333277435E0,1.230534395E1
6.339498250E0,-1.122590561E1,-3.971241760E0,1.085542603E0,1.195701136E1
6.349509250E0,-1.088955505E1,-3.875440979E0,7.758366394E-1,1.158461801E1
6.359519250E0,-1.068702621E1,-3.849544830E0,5.348377991E-1,1.137178861E1
6.369529250E0,-1.063238983E1,-3.858825531E0,3.802093506E-1,1.131736750E1
6.379540250E0,-1.065394501E1,-3.814966736E0,3.927832031E-1,1.132319717E1
6.389550250E0,-1.064960403E1,-3.752097473E0,6.670129395E-1,1.131093311E1
6.399561250E0,-1.044947021E1,-3.634741516E0,1.087189178E0,1.111686799E1
6.409571250E0,-1.007135651E1,-3.603606262E0,1.412313080E0,1.078947766E1
6.419581250E0,-9.743089142E0,-3.906426544E0,1.621877289E0,1.062160253E1
6.429592250E0,-9.253307648E0,-4.068689117E0,1.592089233E0,1.023292146E1
6.439602250E0,-8.627309418E0,-4.050876160E0,1.452878723E0,9.641105851E0
6.449613250E0,-8.175997925E0,-3.801045685E0,1.263821869E0,9.104511853E0
6.459623250E0,-8.036188660E0,-3.576662292E0,1.097517700E0,8.864388666E0
6.469633250E0,-7.963589630E0,-3.533701630E0,8.643026733E-1,8.755159971E0
6.479644250E0,-7.921527100E0,-3.519780579E0,5.773493958E-1,8.687507078E0
6.489654250E0,-7.789351959E0,-3.549119568E0,3.978726196E-1,8.569046404E0
6.499665250E0,-7.490423584E0,-3.623514862E0,3.812571716E-1,8.329565562E0
6.509675250E0,-7.220983887E0,-3.799997864E0,3.457809448E-1,8.167138821E0
6.519685250E0,-6.919211426E0,-3.905079346E0,2.537223816E-1,7.949182757E0
6.529696250E0,-6.728208618E0,-4.272565155E0,1.570234680E-1,7.971716288E0
6.539706250E0,-6.748715973E0,-4.638554077E0,3.802093506E-2,8.189187799E0
6.549717250E0,-6.653663635E0,-4.855752411E0,-1.913021851E-1,8.239306268E0
6.559727250E0,-6.437513123E0,-4.965474243E0,-4.203259277E-1,8.140895746E0
6.569737250E0,-6.255491638E0,-4.824916534E0,-5.493576050E-1,7.919140672E0
6.579748250E0,-6.151757355E0,-4.713548126E0,-6.221063232E-1,7.774874325E0
6.589758250E0,-6.053411865E0,-4.688400421E0,-4.704716492E-1,7.671130118E0
6.599769250E0,-5.914500732E0,-4.704866180E0,-1.847158813E-1,7.559841575E0
6.609779250E0,-5.627846832E0,-4.616549835E0,1.718426514E-1,7.281120947E0
6.619789250E0,-5.113366699E0,-4.403542786E0,5.888754272E-1,6.773808555E0
6.629800250E0,-4.729714508E0,-4.207450562E0,7.562274170E-1,6.375321126E0
6.639810250E0,-4.588857422E0,-4.185296631E0,4.022135925E-1,6.223832911E0
6.649821250E0,-4.550836487E0,-4.391268311E0,-2.121089172E-1,6.327585661E0
6.659831250E0,-4.687502289E0,-4.794978790E0,-1.074615326E0,6.791119010E0
6.669842250E0,-5.036875763E0,-5.412145386E0,-2.082469482E0,7.681022997E0
6.679852250E0,-5.494025116E0,-5.927373962E0,-2.873873749E0,8.577716735E0
6.689862250E0,-5.633085938E0,-5.995482330E0,-3.193309479E0,8.824663788E0
6.699873250E0,-5.728737030E0,-5.439538422E0,-2.939736786E0,8.429060361E0
6.709883250E0,-6.245761871E0,-4.762496338E0,-2.038610687E0,8.114606969E0
6.719893250E0,-7.153025208E0,-4.394711151E0,-9.559121704E-1,8.449439259E0
6.729904250E0,-8.218509521E0,-4.302203522E0,-8.936416626E-2,9.276898180E0
6.739914250E0,-9.264384613E0,-4.455335083E0,7.719447327E-1,1.030896365E1
6.749925250E0,-1.001896545E1,-4.835694122E0,1.400637360E0,1.121273345E1
6.759935250E0,-1.054661819E1,-5.259911957E0,1.694476318E0,1.190668212E1
6.769946250E0,-1.095556778E1,-5.647905121E0,1.804198151E0,1.245706340E1
6.779956250E0,-1.144894180E1,-5.913752289E0,1.844614105E0,1.301742431E1
6.789966250E0,-1.226235031E1,-5.825435944E0,1.888622589E0,1.370648877E1
6.799977250E0,-1.328487396E1,-5.415588226E0,1.799408112E0,1.445871162E1
6.809987250E0,-1.421384216E1,-4.873415680E0,1.559906158E0,1.510684602E1
6.819998250E0,-1.504117172E1,-4.273762665E0,1.179547119E0,1.568098293E1
6.830008250E0,-1.547272430E1,-3.683989105E0,5.948629761E-1,1.591637003E1
6.840018250E0,-1.538081543E1,-3.108136597E0,3.802093506E-2,1.569176351E1
6.850029250E0,-1.504850647E1,-2.547851715E0,-1.437011719E-1,1.526334647E1
6.860039250E0,-1.444121933E1,-2.087708588E0,-1.471440125E-1,1.459208670E1
6.870050250E0,-1.374082581E1,-1.771416321E0,-7.484436035E-4,1.385453753E1
6.880060250E0,-1.321212524E1,-1.503772888E0,5.683680725E-1,1.330956906E1
6.890070250E0,-1.272593628E1,-1.300645294E0,1.175804901E0,1.284615310E1
6.900081250E0,-1.206595871E1,-1.160985718E0,1.615141296E0,1.222881551E1
6.910091250E0,-1.144190643E1,-1.153351593E0,2.089205475E0,1.168812313E1
6.920102250E0,-1.085827011E1,-1.171463928E0,2.555785217E0,1.121634502E1
6.930112250E0,-1.037836807E1,-1.266216888E0,2.883154449E0,1.084557092E1
6.940122250E0,-9.946965179E0,-1.408421173E0,3.169808350E0,1.053439374E1
6.950133250E0,-9.518406372E0,-1.634151764E0,3.366199951E0,1.022750282E1
6.960143250E0,-9.084009705E0,-1.854343872E0,3.523822174E0,9.918424584E0
6.970154250E0,-8.621621246E0,-1.933978271E0,3.662733307E0,9.564948518E0
6.980164250E0,-8.285270691E0,-1.918710022E0,3.470682678E0,9.185466609E0
6.990174250E0,-8.213719482E0,-1.803150330E0,3.161425781E0,8.983938547E0
7.000185250E0,-8.537496185E0,-1.427581329E0,2.910098419E0,9.132113796E0
7.010195250E0,-9.083710327E0,-9.610015869E-1,2.573149109E0,9.489911153E0
7.020206250E0,-9.536818085E0,-5.748046875E-1,2.130669250E0,9.788822762E0
7.030216250E0,-1.014994308E1,-2.863545227E-1,1.676663361E0,1.029147917E1
7.040226250E0,-1.054766602E1,3.411405945E-1,1.395847321E0,1.064509394E1
7.050237250E0,-1.078866486E1,8.104147339E-1,1.046174469E0,1.086952356E1
7.060247250E0,-1.102173019E1,8.530760193E-1,7.318281555E-1,1.107889198E1
7.070258250E0,-1.133368149E1,7.952961731E-1,8.024812317E-1,1.138985550E1
7.080268250E0,-1.164054337E1,7.816744995E-1,1.029559021E0,1.171209873E1
7.090278250E0,-1.210203369E1,8.029302979E-1,1.315763855E0,1.219980127E1
7.100289250E0,-1.271485931E1,9.475296021E-1,1.621428223E0,1.285280083E1
7.110299250E0,-1.327514420E1,1.075363770E0,1.694176941E0,1.342594861E1
7.120310250E0,-1.385878052E1,1.116079102E0,1.308429108E0,1.396507847E1
7.130320250E0,-1.419917267E1,1.174906769E0,8.500822449E-1,1.427303577E1
7.140330250E0,-1.435649551E1,1.077758789E0,5.486091614E-1,1.440734186E1
7.150341250E0,-1.471500000E1,7.617658997E-1,4.764591980E-1,1.474240569E1
7.160351250E0,-1.530372574E1,5.153782654E-1,7.062313843E-1,1.532867897E1
7.170362250E0,-1.575383972E1,4.996609497E-1,1.215173035E0,1.580853480E1
7.180372250E0,-1.579844696E1,6.779402161E-1,1.680255890E0,1.590200582E1
7.190382250E0,-1.575339066E1,8.343649292E-1,1.992805939E0,1.590084141E1
7.200393250E0,-1.581042206E1,7.716453552E-1,1.974094849E0,1.595186298E1
7.210403250E0,-1.591355759E1,3.086581421E-1,1.668131104E0,1.600372601E1
7.220413250E0,-1.622625732E1,-6.138734436E-1,1.228195953E0,1.628424799E1
7.230424250E0,-1.639301056E1,-1.783840485E0,9.380992126E-1,1.651644369E1
7.240434250E0,-1.616234024E1,-2.512375488E0,1.142873383E0,1.639632374E1
7.250445250E0,-1.565414703E1,-2.444117432E0,1.770667877E0,1.594243689E1
7.260455250E0,-1.501796997E1,-1.756148071E0,2.588267670E0,1.534022841E1
7.270465250E0,-1.466171082E1,-1.192120972E0,3.189118195E0,1.505182352E1
7.280476417E0,-1.461770233E1,-1.238973541E0,3.282823334E0,1.503293737E1
7.290486417E0,-1.466949463E1,-1.667083282E0,2.989732819E0,1.506358993E1
7.300497417E0,-1.458941116E1,-2.303559723E0,2.549947357E0,1.498864694E1
7.310507417E0,-1.434047882E1,-2.982547760E0,2.035317535E0,1.478808444E1
7.320517417E0,-1.396925079E1,-3.552113342E0,1.837878113E0,1.453049458E1
7.330528417E0,-1.374007736E1,-4.295018463E0,2.019151154E0,1.453663926E1
7.340538417E0,-1.356194778E1,-4.735552368E0,2.298170929E0,1.454762776E1
7.350549417E0,-1.326212128E1,-4.849615173E0,2.667153625E0,1.437067627E1
7.360559417E0,-1.301019516E1,-4.810097351E0,3.088976440E0,1.421069984E1
7.370569417E0,-1.289388702E1,-4.631818085E0,3.396287384E0,1.411526937E1
7.380580417E0,-1.299642380E1,-4.468358002E0,3.411855011E0,1.416029694E1
7.390590417E0,-1.312186295E1,-4.348457336E0,3.157084808E0,1.417954699E1
7.400601417E0,-1.308024948E1,-4.287084961E0,2.823728027E0,1.405152888E1
7.410611417E0,-1.290032364E1,-4.186943207E0,2.527344360E0,1.379624271E1
7.420621417E0,-1.261875916E1,-4.031566315E0,2.511028290E0,1.348302164E1
7.430632417E0,-1.247011826E1,-4.191583557E0,2.623594208E0,1.341478545E1
7.440642417E0,-1.213661179E1,-4.208648071E0,2.729573822E0,1.313242695E1
7.450653417E0,-1.152648056E1,-4.137845306E0,2.883753204E0,1.258163544E1
7.460663417E0,-1.095002930E1,-4.073329468E0,2.953508148E0,1.205065828E1
7.470673417E0,-1.067954178E1,-4.016447754E0,3.024909668E0,1.180400541E1
7.480684417E0,-1.058838135E1,-4.201912079E0,3.077899475E0,1.180014194E1
7.490694417E0,-1.049273026E1,-4.353097687E0,2.898273010E0,1.172377218E1
7.500705417E0,-1.022718246E1,-4.351451111E0,2.638263702E0,1.142325800E1
7.510715417E0,-9.860744476E0,-4.160298615E0,2.435585175E0,1.097608497E1
7.520725417E0,-9.552984467E0,-4.001029816E0,2.269879761E0,1.060283481E1
7.530736417E0,-9.309889984E0,-3.908372498E0,2.031425629E0,1.029932605E1
7.540746417E0,-9.154213715E0,-3.858226776E0,1.792073364E0,1.009440783E1
7.550757417E0,-9.009165344E0,-3.794010315E0,1.622775421E0,9.909236829E0
7.560767417E0,-8.908574524E0,-3.783981171E0,1.496887207E0,9.793971863E0
7.570777417E0,-8.749006348E0,-3.835324402E0,1.342707825E0,9.646641366E0
7.580788417E0,-8.529712372E0,-3.855981445E0,1.284179535E0,9.448476233E0
7.590798417E0,-8.331524506E0,-3.898043976E0,1.215921478E0,9.278335652E0
7.600809417E0,-8.150700531E0,-3.978277130E0,1.034049683E0,9.128519421E0
7.610819417E0,-7.790549469E0,-4.112547913E0,8.321195984E-1,8.848623305E0
7.620829417E0,-7.339687042E0,-4.238436127E0,6.459068298E-1,8.500149546E0
7.630840417E0,-6.908583527E0,-4.205953674E0,6.001020813E-1,8.110406597E0
7.640850417E0,-6.416257324E0,-4.117038574E0,6.110293579E-1,7.647988072E0
7.650861417E0,-6.134842529E0,-4.334386597E0,5.668711853E-1,7.532897382E0
7.660871417E0,-5.831423492E0,-4.489464111E0,4.528083801E-1,7.373318343E0
7.670881417E0,-5.345234528E0,-4.698130188E0,2.950364685E-1,7.122570178E0
7.680892417E0,-4.904850311E0,-4.793032837E0,2.288740540E-1,6.861712883E0
7.690902417E0,-4.606520691E0,-4.694238281E0,2.222877502E-1,6.580677607E0
7.700913417E0,-4.483326874E0,-4.627477112E0,3.173400879E-1,6.450927763E0
7.710923417E0,-4.309837646E0,-4.481680298E0,5.221142578E-1,6.239612338E0
7.720933417E0,-4.137994995E0,-4.291875000E0,5.761518860E-1,5.989586346E0
7.730944417E0,-3.893852692E0,-4.143832855E0,4.245172119E-1,5.702074568E0
7.740954417E0,-3.787873077E0,-4.148323517E0,1.639091492E-1,5.619914293E0
7.750964417E0,-3.997437286E0,-4.246519318E0,-1.508862305E-1,5.833969303E0
7.760975417E0,-4.417763214E0,-4.514761505E0,-6.069877625E-1,6.345718037E0
7.770985417E0,-5.127736816E0,-4.996759186E0,-1.303938446E0,7.277468151E0
7.780996417E0,-5.700745239E0,-5.547613678E0,-2.210303650E0,8.255904313E0
7.791006417E0,-6.082152100E0,-5.886209564E0,-2.928510132E0,8.956350194E0
7.801016417E0,-6.294410706E0,-5.710924072E0,-3.105442200E0,9.048648029E0
7.811027417E0,-6.640940094E0,-5.103936310E0,-2.573897552E0,8.762259971E0
7.821037417E0,-7.373367004E0,-4.443210297E0,-1.563348999E0,8.749441057E0
7.831048417E0,-8.239465942E0,-4.016747131E0,-5.836363220E-1,9.184970761E0
7.841058417E0,-9.151519318E0,-3.954925690E0,1.785786438E-1,9.971140023E0
7.851068417E0,-1.009830048E1,-4.159849548E0,8.035290527E-1,1.095105838E1
7.861079417E0,-1.089883575E1,-4.666845245E0,1.155297546E0,1.191212734E1
7.871089417E0,-1.144834305E1,-5.259462891E0,1.224304047E0,1.265801836E1
7.881100417E0,-1.170431076E1,-5.758225708E0,1.263821869E0,1.310516308E1
7.891110417E0,-1.210218338E1,-5.966891785E0,1.419348450E0,1.356765235E1
7.901120417E0,-1.288580383E1,-5.848038940E0,1.563498688E0,1.423685457E1
7.911131417E0,-1.379306717E1,-5.462740173E0,1.686542816E0,1.493099658E1
7.921141417E0,-1.448193466E1,-4.932093658E0,1.664388885E0,1.538902758E1
7.931152417E0,-1.510119690E1,-4.357738037E0,1.370549927E0,1.577702240E1
7.941162417E0,-1.562435898E1,-3.751947784E0,1.274000702E0,1.611895727E1
7.951172417E0,-1.580608109E1,-3.249293060E0,1.604812775E0,1.621621191E1
7.961183417E0,-1.537003784E1,-2.786006470E0,1.815873871E0,1.572568896E1
7.971193417E0,-1.442460388E1,-2.402803345E0,1.655257874E0,1.471674352E1
7.981204417E0,-1.322664505E1,-2.241289215E0,1.607956238E0,1.351121904E1
7.991214417E0,-1.221489899E1,-2.104473724E0,1.727856903E0,1.251471360E1
8.001224417E0,-1.154085068E1,-1.929188232E0,1.964065704E0,1.186467681E1
8.011235417E0,-1.122919876E1,-1.772763519E0,2.076481934E0,1.155635637E1
8.021245417E0,-1.118728592E1,-1.688937836E0,2.023192749E0,1.149352801E1
8.031256417E0,-1.112366821E1,-1.434317322E0,2.058070221E0,1.140302213E1
8.041266417E0,-1.092922256E1,-1.082399139E0,2.259700928E0,1.121274909E1
8.051276417E0,-1.062819855E1,-7.906558228E-1,2.320474548E0,1.090726103E1
8.061287417E0,-1.021281235E1,-7.818241882E-1,2.119442596E0,1.045967600E1
8.071297417E0,-9.671088867E0,-1.060843964E0,1.783391418E0,9.891199864E0
8.081307417E0,-9.260343018E0,-1.138981476E0,1.359772339E0,9.428690918E0
8.091318417E0,-8.786578217E0,-9.669891357E-1,1.013841705E0,8.897578308E0
8.101328417E0,-8.654103699E0,-9.355545044E-1,8.390052795E-1,8.744867233E0
8.111339417E0,-8.630153503E0,-7.917036438E-1,8.113128662E-1,8.704284733E0
8.121349417E0,-8.869805145E0,-5.682183838E-1,7.990383911E-1,8.923832013E0
8.131359417E0,-9.313332825E0,-3.779640198E-1,8.360115051E-1,9.358415482E0
8.141370417E0,-9.872420197E0,-1.779798889E-1,7.789801025E-1,9.904704305E0
8.151380417E0,-1.038944504E1,-3.817062378E-2,6.110293579E-1,1.040746761E1
8.161391417E0,-1.099433716E1,3.742218018E-2,5.176235962E-1,1.100657913E1
8.171401417E0,-1.170835236E1,1.875599670E-1,5.047503662E-1,1.172072807E1
8.181411417E0,-1.226788879E1,5.399272156E-1,6.182144165E-1,1.229531642E1
8.191422417E0,-1.259510834E1,9.367520142E-1,8.381071472E-1,1.265767285E1
8.201432417E0,-1.290256897E1,1.160386963E0,1.101708984E0,1.300140556E1
8.211443417E0,-1.337678284E1,1.197210388E0,1.355281677E0,1.349845992E1
8.221453417E0,-1.413166306E1,1.049168243E0,1.562301178E0,1.425641749E1
8.231463417E0,-1.498144592E1,8.758287048E-1,1.623374176E0,1.509457325E1
8.241474417E0,-1.564726135E1,8.484356689E-1,1.535207520E0,1.574526891E1
8.251484417E0,-1.610770386E1,9.300160217E-1,1.396296387E0,1.619483550E1
8.261494417E0,-1.637489822E1,9.702822876E-1,1.121318207E0,1.644190056E1
8.271505417E0,-1.655482407E1,9.873468018E-1,8.080197144E-1,1.660391368E1
8.281515750E0,-1.657832520E1,1.102756805E0,6.948550415E-1,1.662948473E1
8.291526750E0,-1.647414185E1,1.193767548E0,8.184979248E-1,1.653760470E1
8.301536750E0,-1.638866959E1,1.144969025E0,1.124162292E0,1.646703330E1
8.311546750E0,-1.655422531E1,5.742059326E-1,1.284329224E0,1.661389749E1
8.321557750E0,-1.661200516E1,-5.393284607E-1,1.173559570E0,1.666213770E1
8.331567750E0,-1.640214157E1,-1.623074799E0,1.025667114E0,1.651413373E1
8.341578750E0,-1.604273895E1,-2.381397858E0,1.025816803E0,1.625093317E1
8.351588750E0,-1.555654999E1,-2.868185577E0,1.344803467E0,1.587580651E1
8.361598750E0,-1.508473114E1,-2.666854248E0,1.803300018E0,1.542443244E1
8.371609750E0,-1.468042191E1,-1.903591461E0,2.342478790E0,1.498751663E1
8.381619750E0,-1.457234665E1,-1.458417206E0,2.796933746E0,1.490983253E1
8.391630750E0,-1.468760696E1,-1.755549316E0,2.890788574E0,1.507197433E1
8.401640750E0,-1.487890915E1,-2.418071594E0,2.759661255E0,1.532464479E1
8.411650750E0,-1.475466751E1,-3.041974182E0,2.593955841E0,1.528667482E1
8.421661750E0,-1.443912369E1,-3.663930817E0,2.335742798E0,1.507873922E1
8.431671750E0,-1.443178894E1,-4.465663605E0,1.951791229E0,1.523247099E1
8.441682750E0,-1.453477478E1,-4.945116577E0,1.665885773E0,1.544309008E1
8.451692750E0,-1.435649551E1,-5.095553741E0,1.418001251E0,1.529981565E1
8.461702750E0,-1.400861893E1,-4.991370392E0,1.271156616E0,1.492551580E1
8.471713750E0,-1.356479187E1,-4.776866455E0,1.299298096E0,1.443988252E1
8.481723750E0,-1.317350555E1,-4.736300812E0,1.478475494E0,1.407692025E1
8.491733750E0,-1.289762924E1,-4.889582062E0,1.661095734E0,1.389302314E1
8.501744750E0,-1.245320343E1,-4.928052063E0,1.831291809E0,1.351745547E1
8.511754750E0,-1.214963470E1,-5.089865570E0,1.908381500E0,1.331023196E1
8.521765750E0,-1.188169189E1,-5.234913940E0,1.807191925E0,1.310896140E1
8.531775750E0,-1.154968231E1,-5.093158722E0,1.492845612E0,1.271078343E1
8.541785750E0,-1.119716537E1,-4.808151398E0,1.210832062E0,1.224585426E1
8.551796750E0,-1.092039093E1,-4.596940613E0,1.035396881E0,1.189364737E1
8.561806750E0,-1.081710571E1,-4.437073059E0,9.738748169E-1,1.173225577E1
8.571817750E0,-1.081231567E1,-4.256249084E0,1.078357544E0,1.166981926E1
8.581827750E0,-1.086575455E1,-4.229604492E0,1.197809143E0,1.172130209E1
8.591837750E0,-1.097906891E1,-4.249363403E0,1.299148407E0,1.184418972E1
8.601848750E0,-1.095661560E1,-4.189038849E0,1.458267517E0,1.182040676E1
8.611858750E0,-1.083177521E1,-4.150718536E0,1.714085541E0,1.172577962E1
8.621869750E0,-1.063373703E1,-4.164040833E0,1.917362823E0,1.157980481E1
8.631879750E0,-1.027373566E1,-4.254602509E0,2.028581543E0,1.130338135E1
8.641889750E0,-9.797126770E0,-4.414170685E0,2.107317810E0,1.095031434E1
8.651900750E0,-9.033863983E0,-4.532873840E0,2.244282990E0,1.035347525E1
8.661910750E0,-8.182733917E0,-4.650828552E0,2.320923615E0,9.694020167E0
8.671920750E0,-7.551346893E0,-4.484674072E0,2.487976227E0,9.128262000E0
8.681931750E0,-7.187303925E0,-4.292473755E0,2.738854523E0,8.808177606E0
8.691941750E0,-7.187902679E0,-4.530179443E0,2.703527985E0,8.916138978E0
8.701952750E0,-7.170987854E0,-4.800666962E0,2.387235718E0,8.953678822E0
8.711962750E0,-6.983278198E0,-5.124144287E0,1.892963562E0,8.866021662E0
8.721972750E0,-6.578968964E0,-5.381159821E0,1.172960815E0,8.579950508E0
8.731983750E0,-5.998176727E0,-5.503754883E0,3.653901672E-1,8.148800638E0
8.741993750E0,-5.481750641E0,-5.601501617E0,-3.095562744E-1,7.843611129E0
8.752004750E0,-5.049000549E0,-5.714815979E0,-9.270222473E-1,7.681855145E0
8.762014750E0,-4.718487854E0,-5.760321350E0,-1.436862030E0,7.583534939E0
8.772024750E0,-4.527335358E0,-5.504503326E0,-1.724563751E0,7.332833180E0
8.782035750E0,-4.736899567E0,-4.945865021E0,-1.598226471E0,7.032362772E0
8.792045750E0,-5.231321411E0,-4.427043915E0,-1.153052216E0,6.949458320E0
8.802055750E0,-6.058052216E0,-4.021686859E0,-5.698649597E-1,7.293744437E0
8.812066750E0,-6.849606171E0,-3.552412720E0,3.001258850E-1,7.721840219E0
8.822076750E0,-7.389084320E0,-3.188220062E0,1.197958832E0,8.136241123E0
8.832087750E0,-7.241790619E0,-2.922223206E0,1.732646942E0,7.999061524E0
8.842097750E0,-6.680457916E0,-2.676134949E0,1.621278534E0,7.376907233E0
8.852107750E0,-6.232589264E0,-2.589165802E0,9.524693298E-1,6.815874581E0
8.862118750E0,-6.146069183E0,-2.660567322E0,1.004411316E-1,6.697975314E0
8.872128750E0,-6.468498688E0,-2.702779541E0,-7.786807251E-1,7.053569039E0
8.882139750E0,-6.806346130E0,-2.681972809E0,-1.695973206E0,7.509703783E0
8.892149750E0,-7.337142334E0,-2.954855347E0,-2.575843506E0,8.318641567E0
8.902159750E0,-7.650291138E0,-3.290008392E0,-3.082689514E0,8.879982227E0
8.912170750E0,-7.982151031E0,-3.219205627E0,-3.102598114E0,9.148996394E0
8.922180750E0,-8.565637665E0,-2.856509857E0,-2.636617126E0,9.406463046E0
8.932191750E0,-9.254804535E0,-2.689157867E0,-1.931583252E0,9.829241623E0
8.942201750E0,-9.763297119E0,-2.349663849E0,-1.174008636E0,1.011044940E1
8.952211750E0,-9.882898407E0,-1.907633057E0,-8.824150085E-1,1.010392998E1
8.962222750E0,-1.004590942E1,-1.719773712E0,-1.063089294E0,1.024734486E1
8.972232750E0,-1.025876678E1,-1.873354340E0,-1.695075073E0,1.056527482E1
8.982242750E0,-1.046833099E1,-2.282453613E0,-2.537672882E0,1.101069171E1
8.992253750E0,-1.062640228E1,-2.574196930E0,-3.136876831E0,1.137483677E1
9.002263750E0,-1.091919342E1,-2.789299622E0,-3.134781189E0,1.169768483E1
9.012274750E0,-1.123982666E1,-2.861000519E0,-2.506986694E0,1.186608653E1
9.022284750E0,-1.158111694E1,-2.851869507E0,-1.629212036E0,1.203784703E1
9.032294750E0,-1.180145874E1,-2.850073242E0,-8.113128662E-1,1.216780894E1
9.042305750E0,-1.190893524E1,-2.832709351E0,-1.718426514E-1,1.224240625E1
9.052315750E0,-1.171044800E1,-2.783761139E0,3.370989990E-1,1.204149302E1
9.062326750E0,-1.125269989E1,-2.772085419E0,6.897656250E-1,1.160962915E1
9.072336750E0,-1.069046906E1,-2.839145966E0,9.002279663E-1,1.109762537E1
9.082346750E0,-1.017913239E1,-2.879561920E0,1.245859222E0,1.065170306E1
9.092357750E0,-9.733359375E0,-2.915187836E0,1.681902466E0,1.029880579E1
9.102367750E0,-9.439520416E0,-2.934347992E0,2.024390259E0,1.009024775E1
9.112377750E0,-9.301806793E0,-2.869981842E0,2.373164978E0,1.001959667E1
9.122388750E0,-9.364226990E0,-2.747835846E0,2.632276154E0,1.010782997E1
9.132398750E0,-9.609866180E0,-2.671344910E0,2.603535919E0,1.030844367E1
9.142409750E0,-9.718091125E0,-2.703228607E0,2.464175720E0,1.038368441E1
9.152419750E0,-9.523495789E0,-2.717149658E0,2.309996338E0,1.016936367E1
9.162429750E0,-9.382489014E0,-2.643652496E0,2.226020966E0,9.998758321E0
9.172440750E0,-9.397757263E0,-2.504891052E0,2.165397034E0,9.963998448E0
9.182450750E0,-9.378896484E0,-2.377206573E0,2.127376099E0,9.906590706E0
9.192461750E0,-9.267827454E0,-2.254312134E0,2.071542206E0,9.760421918E0
9.202471750E0,-9.220376129E0,-2.083666992E0,2.074386292E0,9.677813936E0
9.212481750E0,-9.314680023E0,-1.895957336E0,2.007176056E0,9.715280432E0
9.222492750E0,-9.516011353E0,-1.684447174E0,1.916165314E0,9.852082209E0
9.232502750E0,-9.849218445E0,-1.476978607E0,1.908680878E0,1.014059330E1
9.242512750E0,-1.019215530E1,-1.315015411E0,1.814975739E0,1.043568073E1
9.252523750E0,-1.056428146E1,-1.325643311E0,1.594783630E0,1.076590488E1
9.262533750E0,-1.094464050E1,-1.267264709E0,1.403930511E0,1.110685088E1
9.272544750E0,-1.099673218E1,-8.761280823E-1,1.235081635E0,1.110050204E1
9.282554375E0,-1.118054993E1,-6.354286194E-1,9.795629883E-1,1.124135267E1
9.292564375E0,-1.151570297E1,-4.611909485E-1,7.336244202E-1,1.154826034E1
9.302575375E0,-1.185729263E1,-3.754193115E-1,5.553451538E-1,1.187622568E1
9.312585375E0,-1.214544342E1,-2.923420715E-1,4.713697815E-1,1.215810221E1
9.322595375E0,-1.264839752E1,-1.619631958E-1,7.345225525E-1,1.267074249E1
9.332606375E0,-1.318458252E1,-5.748046875E-2,1.164877625E0,1.323606664E1
9.342616375E0,-1.351404739E1,6.840774536E-2,1.270258484E0,1.357378772E1
9.352627375E0,-1.381102982E1,1.790277100E-1,1.236578522E0,1.386743386E1
9.362637375E0,-1.416234924E1,2.204914856E-1,1.219214630E0,1.421644248E1
9.372647375E0,-1.467428467E1,2.728825378E-1,1.263372803E0,1.473109657E1
9.382658375E0,-1.538276138E1,3.219804382E-1,1.307081909E0,1.544155051E1
9.392668375E0,-1.592613144E1,4.845423889E-1,1.323397980E0,1.598836534E1
9.402679375E0,-1.619242767E1,9.377998352E-1,1.437460785E0,1.628313471E1
9.412689375E0,-1.633059036E1,1.418749695E0,1.427731018E0,1.645416203E1
9.422699375E0,-1.656724823E1,1.637295227E0,1.299447784E0,1.669859318E1
9.432710375E0,-1.695075073E1,1.415905609E0,9.412426758E-1,1.703580573E1
9.442720375E0,-1.737676483E1,6.724017334E-1,3.309617615E-1,1.739291855E1
9.452730375E0,-1.758288620E1,-3.263214111E-1,-1.469943237E-1,1.758652837E1
9.462741375E0,-1.748498978E1,-7.812254333E-1,-1.793270874E-1,1.750335222E1
9.472751375E0,-1.712438965E1,-5.977070618E-1,2.547702026E-1,1.713671154E1
9.482762375E0,-1.674133621E1,-3.010240173E-1,7.915539551E-1,1.676274176E1
9.492772375E0,-1.647833313E1,-4.029620361E-1,1.137783966E0,1.652248146E1
9.502782375E0,-1.628912659E1,-9.885443115E-1,1.213975525E0,1.636418655E1
9.512793375E0,-1.590712097E1,-1.851649475E0,1.164428558E0,1.605680533E1
9.522803375E0,-1.539758057E1,-2.690505066E0,1.210083618E0,1.567764674E1
9.532814375E0,-1.488549545E1,-3.360062714E0,1.273851013E0,1.531308893E1
9.542824375E0,-1.437011719E1,-3.964655457E0,1.354982300E0,1.496845810E1
9.552834375E0,-1.395398254E1,-4.398453369E0,1.453627167E0,1.470282465E1
9.562845375E0,-1.346764389E1,-4.446054382E0,1.469943237E0,1.425852603E1
9.572855375E0,-1.295481033E1,-4.336033173E0,1.449286194E0,1.373785736E1
9.582865375E0,-1.255858429E1,-4.181704102E0,1.390608215E0,1.330933807E1
9.592876375E0,-1.224094482E1,-4.085753632E0,1.148860931E0,1.295584788E1
9.602886375E0,-1.206146805E1,-4.002826080E0,7.958949280E-1,1.273322728E1
9.612897375E0,-1.211490692E1,-3.895948334E0,5.168751526E-1,1.273642584E1
9.622907375E0,-1.201416641E1,-3.812422028E0,3.585044861E-1,1.260965034E1
9.632917375E0,-1.197285233E1,-4.019591217E0,4.255650330E-1,1.263674847E1
9.642928375E0,-1.185938828E1,-4.148473206E0,7.207511902E-1,1.258468921E1
9.652938375E0,-1.167362457E1,-4.139491882E0,1.034199371E0,1.242893688E1
9.662949375E0,-1.143831390E1,-4.102219391E0,1.296004944E0,1.222059154E1
9.672959375E0,-1.143711639E1,-4.144730988E0,1.440604248E0,1.224997008E1
9.682969375E0,-1.144460083E1,-4.270469513E0,1.515448608E0,1.230903662E1
9.692980375E0,-1.142738663E1,-4.266278229E0,1.505419464E0,1.229034511E1
9.702990375E0,-1.128772705E1,-4.069138184E0,1.264720001E0,1.206524696E1
9.713000375E0,-1.107771378E1,-4.006268921E0,9.836045837E-1,1.182088876E1
9.723011375E0,-1.101229980E1,-4.141587524E0,7.734416199E-1,1.179074663E1
9.733021375E0,-1.094658646E1,-4.290976868E0,7.458988953E-1,1.178119700E1
9.743032375E0,-1.075244019E1,-4.292922821E0,8.753796387E-1,1.161079006E1
9.753042375E0,-1.050066376E1,-4.248764648E0,1.093326416E0,1.138030329E1
9.763052375E0,-1.029154861E1,-4.278552704E0,1.314266968E0,1.122271285E1
9.773063375E0,-9.992769928E0,-4.194727020E0,1.410217438E0,1.092885625E1
9.783073375E0,-9.751022644E0,-4.078269196E0,1.299896851E0,1.064915274E1
9.793084375E0,-9.759854279E0,-4.385280762E0,1.143172760E0,1.076068245E1
9.803094375E0,-9.678124237E0,-4.520749054E0,8.910969543E-1,1.071901649E1
9.813104375E0,-9.300160217E0,-4.567152557E0,5.171745300E-1,1.037397378E1
9.823115375E0,-8.779243469E0,-4.593647461E0,2.686912537E-1,9.912058710E0
9.833125375E0,-8.272247772E0,-4.636458435E0,1.426533508E-1,9.484048714E0
9.843135375E0,-7.835306396E0,-4.706812134E0,1.347198486E-1,9.141348709E0
9.853146375E0,-7.485334167E0,-4.782255249E0,1.917512512E-1,8.884647512E0
9.863156375E0,-7.233857117E0,-4.895868988E0,2.510279846E-1,8.738491688E0
9.873167375E0,-6.896758118E0,-4.943919067E0,2.466870117E-1,8.489314623E0
9.883177375E0,-6.540199585E0,-4.876259766E0,2.523751831E-1,8.161851086E0
9.893187375E0,-6.179150391E0,-4.778962097E0,1.871109009E-1,7.813794774E0
9.903198375E0,-5.869743805E0,-4.600233765E0,1.068777466E-1,7.458382256E0
9.913208375E0,-5.714965668E0,-4.449646912E0,1.128652954E-1,7.243820042E0
9.923219375E0,-5.684129791E0,-4.463567963E0,2.040257263E-1,7.230103522E0
9.933229375E0,-5.720803528E0,-4.413871307E0,4.093986511E-1,7.237227382E0
9.943239375E0,-5.575904846E0,-4.217479706E0,6.611750793E-1,7.022464127E0
9.953250375E0,-5.141807556E0,-3.888463898E0,7.548802185E-1,6.490622510E0
9.963260375E0,-4.829706573E0,-3.642675018E0,5.975573730E-1,6.078833909E0
9.973270375E0,-4.810845795E0,-3.699556732E0,7.544311523E-2,6.069320303E0
9.983281375E0,-4.985233154E0,-3.993545380E0,-5.885760498E-1,6.414622052E0
9.993291375E0,-5.642516327E0,-4.440216522E0,-1.261127472E0,7.289990107E0
1.000330238E1,-6.502328339E0,-4.995411987E0,-1.911375275E0,8.419487525E0
1.001331238E1,-6.991960144E0,-5.517975311E0,-2.315385132E0,9.203073753E0
1.002332238E1,-7.031627655E0,-5.648354187E0,-2.306852875E0,9.309632790E0
1.003333338E1,-6.754254456E0,-5.348677368E0,-1.700912933E0,8.781879505E0
1.004334337E1,-6.790628815E0,-4.956941986E0,-7.283853149E-1,8.438865962E0
1.005335338E1,-7.285948792E0,-4.740941162E0,2.953358459E-1,8.697631641E0
1.006336438E1,-7.970625000E0,-4.715793457E0,1.167272644E0,9.334457469E0
1.007337438E1,-8.733139343E0,-4.736450500E0,1.694925385E0,1.007841546E1
1.008338538E1,-9.421108704E0,-4.772675171E0,1.842817841E0,1.072062009E1
1.009339538E1,-1.009800110E1,-4.784799957E0,1.512005768E0,1.127608524E1
1.010340538E1,-1.040381516E1,-4.677323456E0,7.777825928E-1,1.143335779E1
1.011341638E1,-1.088865692E1,-4.546196136E0,3.058140564E-1,1.180357027E1
1.012342637E1,-1.153351593E1,-4.440515900E0,6.855743408E-2,1.235899961E1
1.013343738E1,-1.231578918E1,-4.370311890E0,-1.490899658E-1,1.306906718E1
1.014344738E1,-1.300765045E1,-4.114194489E0,-1.785786438E-1,1.364395313E1
1.015345738E1,-1.337932755E1,-3.788920898E0,-2.378553772E-1,1.390751244E1
1.016346838E1,-1.350326981E1,-3.433559875E0,-3.567082214E-1,1.393753456E1
1.017347838E1,-1.346210541E1,-3.213517456E0,-4.040098572E-1,1.384623416E1
1.018348838E1,-1.283011963E1,-2.643203430E0,-1.793270874E-1,1.310078823E1
1.019349938E1,-1.206895248E1,-2.207459564E0,1.642085266E-1,1.227026716E1
1.020350937E1,-1.148816025E1,-2.142195282E0,5.466632080E-1,1.169896009E1
1.021352038E1,-1.102562210E1,-2.287393341E0,8.825646973E-1,1.129492946E1
1.022353038E1,-1.058014847E1,-2.515668640E0,1.147513733E0,1.093548893E1
1.023354038E1,-9.994865570E0,-2.681823120E0,1.247954865E0,1.042338258E1
1.024355138E1,-9.627529449E0,-2.831062775E0,1.151255951E0,1.010097174E1
1.025356138E1,-9.340576172E0,-2.568508759E0,9.726773071E-1,9.736000288E0
1.026357138E1,-9.107810211E0,-2.189496918E0,7.566764832E-1,9.397800961E0
1.027358238E1,-9.309590607E0,-2.002535706E0,6.391708374E-1,9.543959654E0
1.028359213E1,-9.554631042E0,-1.924248505E0,6.114784241E-1,9.765634261E0
1.029360313E1,-9.804162140E0,-1.881138153E0,4.788542175E-1,9.994477344E0
1.030361313E1,-9.976154480E0,-1.882036285E0,5.069956970E-1,1.016478054E1
1.031362313E1,-9.957293701E0,-1.909579010E0,5.358856201E-1,1.015289925E1
1.032363413E1,-9.780810699E0,-1.924547882E0,2.799179077E-1,9.972286424E0
1.033364413E1,-9.563312988E0,-1.972298584E0,-8.173004150E-2,9.764916631E0
1.034365513E1,-9.627379761E0,-2.028132477E0,-3.411405945E-1,9.844599500E0
1.035366513E1,-1.029169830E1,-2.008373566E0,-4.878355408E-1,1.049717114E1
1.036367513E1,-1.093161758E1,-1.580114136E0,-5.843847656E-1,1.106067490E1
1.037368613E1,-1.174981613E1,-1.199156342E0,-6.625222778E-1,1.182941633E1
1.038369613E1,-1.247445923E1,-8.405021667E-1,-8.181985474E-1,1.252948625E1
1.039370613E1,-1.299148407E1,-4.906796265E-1,-1.036594391E0,1.304200724E1
1.040371713E1,-1.343411362E1,-1.495390320E-1,-1.136736145E0,1.348294996E1
1.041372713E1,-1.395068939E1,2.198927307E-1,-1.165177002E0,1.400099014E1
1.042373813E1,-1.447130676E1,4.876858521E-1,-1.352437592E0,1.454254601E1
1.043374813E1,-1.487486755E1,5.372328186E-1,-1.629361725E0,1.497348067E1
1.044375813E1,-1.524340118E1,5.728587341E-1,-1.922452240E0,1.537482583E1
1.045376913E1,-1.569755676E1,6.450086975E-1,-1.990710297E0,1.583642169E1
1.046377913E1,-1.603151230E1,6.481521606E-1,-1.895208893E0,1.615615377E1
1.047378913E1,-1.631801651E1,5.712121582E-1,-1.720372467E0,1.641839297E1
1.048380013E1,-1.661125671E1,4.167333984E-1,-1.658551025E0,1.669905111E1
1.049381013E1,-1.664598450E1,3.070115662E-1,-1.741179199E0,1.673961651E1
1.050382113E1,-1.640797943E1,3.321592712E-1,-1.773511963E0,1.650689139E1
1.051383113E1,-1.613988693E1,3.341052246E-1,-1.623823242E0,1.622480750E1
1.052384113E1,-1.598675537E1,4.909790039E-2,-1.318308563E0,1.604109396E1
1.053385213E1,-1.596954117E1,-7.057823181E-1,-1.012494507E0,1.601716326E1
1.054386213E1,-1.598885101E1,-1.698817291E0,-7.021897888E-1,1.609417309E1
1.055387213E1,-1.599409012E1,-2.505639496E0,-2.871029663E-1,1.619171319E1
1.056388313E1,-1.599124603E1,-3.054847412E0,5.463638306E-2,1.628051067E1
1.057389313E1,-1.591924576E1,-3.193608856E0,4.296066284E-1,1.624210839E1
1.058390413E1,-1.578422653E1,-2.830014954E0,8.979826355E-1,1.606104494E1
1.059391413E1,-1.569620956E1,-2.358345795E0,1.176104279E0,1.591590434E1
1.060392412E1,-1.577764023E1,-2.379002838E0,1.096469879E0,1.599361847E1
1.061393513E1,-1.574725342E1,-2.880160675E0,9.062155151E-1,1.603410560E1
1.062394513E1,-1.548305283E1,-3.682791595E0,7.946974182E-1,1.593484932E1
1.063395513E1,-1.516601212E1,-4.560566254E0,9.523196411E-1,1.586548457E1
1.064396613E1,-1.469119949E1,-5.256918182E0,1.305734711E0,1.565795244E1
1.065397613E1,-1.380653915E1,-5.687872009E0,1.638642426E0,1.502190269E1
1.066398713E1,-1.309087738E1,-6.299799500E0,2.068698120E0,1.467440139E1
1.067399713E1,-1.234782257E1,-6.559808807E0,2.403102722E0,1.418713208E1
1.068400712E1,-1.136945709E1,-6.513854370E0,2.496508484E0,1.333894328E1
1.069401813E1,-1.038285873E1,-6.294111328E0,2.395618286E0,1.237572543E1
1.070402813E1,-9.927206268E0,-5.766458588E0,2.212848358E0,1.169179913E1
1.071403813E1,-9.943672028E0,-5.290897522E0,1.951491852E0,1.143147105E1
1.072404913E1,-9.954748993E0,-4.902754669E0,1.323397980E0,1.117521423E1
1.073405913E1,-9.989776154E0,-4.437372437E0,5.249583435E-1,1.094355897E1
1.074407013E1,-1.014590149E1,-4.015250244E0,-5.179229736E-2,1.091165588E1
1.075408013E1,-1.046174469E1,-3.688180389E0,-5.120851135E-1,1.110463902E1
1.076409012E1,-1.056218582E1,-3.463647308E0,-9.210346985E-1,1.115369566E1
1.077410113E1,-1.048928741E1,-3.329376526E0,-1.121168518E0,1.106195812E1
1.078411113E1,-1.033645523E1,-3.269501038E0,-9.907896423E-1,1.088639554E1
1.079412113E1,-1.032492920E1,-3.318000183E0,-6.453080750E-1,1.086414795E1
1.080413213E1,-1.035786072E1,-3.410956879E0,-2.124082947E-1,1.090710882E1
1.081414213E1,-1.028720764E1,-3.405568085E0,2.049238586E-1,1.083819767E1
1.082415313E1,-1.019919067E1,-3.349734192E0,4.320016479E-1,1.074387430E1
1.083416313E1,-1.013198044E1,-3.421734467E0,4.965174866E-1,1.070569120E1
1.084417312E1,-1.002540207E1,-3.499123535E0,5.176235962E-1,1.063110937E1
1.085418413E1,-9.936337280E0,-3.492088165E0,5.583389282E-1,1.054690574E1
1.086419413E1,-9.984087982E0,-3.534450073E0,6.361770630E-1,1.061032853E1
1.087420413E1,-9.995763702E0,-3.647914124E0,6.364764404E-1,1.065962812E1
1.088421513E1,-9.901160431E0,-3.821403351E0,5.442681885E-1,1.062696237E1
1.089422513E1,-9.764494629E0,-3.947441254E0,4.192781067E-1,1.054056175E1
1.090423613E1,-9.554181976E0,-4.046684875E0,3.056643677E-1,1.038034115E1
1.091424613E1,-9.371112671E0,-4.181105347E0,1.312770081E-1,1.026238901E1
1.092425612E1,-9.186995544E0,-4.354444885E0,-2.335144043E-2,1.016674101E1
1.093426713E1,-8.846004639E0,-4.520150299E0,-5.733078003E-2,9.934125206E0
1.094427713E1,-8.449329529E0,-4.559967499E0,1.287322998E-2,9.601283185E0
1.095428713E1,-8.020321655E0,-4.621040497E0,7.499404907E-2,9.256629993E0
1.096429813E1,-7.802374878E0,-4.730912018E0,9.639953613E-2,9.125123294E0
1.097430813E1,-7.657027130E0,-4.887785797E0,7.259902954E-2,9.084370374E0
1.098431913E1,-7.472011871E0,-5.078339539E0,7.185058594E-3,9.034408973E0
1.099432913E1,-7.180567932E0,-5.104684753E0,-2.065704346E-2,8.810152608E0
1.100433913E1,-6.731801147E0,-4.933141479E0,-6.571334839E-2,8.346097878E0
1.101435013E1,-6.649771729E0,-5.285957794E0,-4.775070190E-2,8.494886343E0
1.102436013E1,-6.486012268E0,-5.413941650E0,-0.000000000E0,8.448616415E0
1.103437013E1,-5.957910461E0,-5.332960052E0,9.295669556E-2,7.996611841E0
1.104438113E1,-5.234165497E0,-5.154531097E0,2.393522644E-1,7.350031890E0
1.105439113E1,-4.467908936E0,-4.949906616E0,4.342469788E-1,6.682241855E0
1.106440213E1,-3.933669891E0,-4.847070465E0,5.180726624E-1,6.263884593E0
1.107441213E1,-3.853436737E0,-4.895569611E0,3.573069763E-1,6.240452289E0
1.108442213E1,-4.075874176E0,-4.990921326E0,3.502716064E-2,6.443855436E0
1.109443313E1,-4.580474854E0,-5.168452148E0,-4.448748779E-1,6.920372906E0
1.110444313E1,-5.262306976E0,-5.516628113E0,-1.215023346E0,7.720190553E0
1.111445313E1,-5.751489716E0,-5.829327850E0,-2.159858551E0,8.469101847E0
1.112446413E1,-5.881718903E0,-5.952821045E0,-2.965333557E0,8.878282421E0
1.113447413E1,-5.896089020E0,-5.909111938E0,-3.339705048E0,8.990834190E0
1.114448513E1,-5.944887543E0,-5.548362122E0,-2.979104919E0,8.660316175E0
1.115449513E1,-6.492299194E0,-5.016817474E0,-1.813029785E0,8.402706909E0
1.116450513E1,-7.299121399E0,-4.646038513E0,-5.200186157E-1,8.667944763E0
1.117451613E1,-8.091124420E0,-4.485871582E0,4.462220764E-1,9.262205589E0
1.118452612E1,-8.916657715E0,-4.466412048E0,1.038390656E0,1.002665829E1
1.119453613E1,-9.512867889E0,-4.619393921E0,1.216969299E0,1.064492696E1
1.120454713E1,-9.888436890E0,-5.003495178E0,9.204359436E-1,1.112040244E1
1.121455713E1,-1.060484711E1,-5.553451538E0,5.147795105E-1,1.198201169E1
1.122456813E1,-1.137903717E1,-5.870941315E0,3.782633972E-1,1.280989938E1
1.123457813E1,-1.187899750E1,-5.850583649E0,1.975891113E-1,1.324307185E1
1.124458813E1,-1.254601044E1,-5.551954651E0,9.879455566E-3,1.371957273E1
1.125459913E1,-1.314446594E1,-5.095853119E0,-9.370513916E-2,1.409799576E1
1.126460912E1,-1.338277039E1,-4.603975983E0,-1.827699280E-1,1.415374660E1
1.127461913E1,-1.338022568E1,-4.088747406E0,-2.701881409E-1,1.399361626E1
1.128463063E1,-1.314281937E1,-3.627556458E0,-3.077600098E-1,1.363772646E1
1.129464063E1,-1.274719208E1,-3.228186951E0,-3.135978699E-1,1.315334332E1
1.130465162E1,-1.222223373E1,-2.922672272E0,-1.237925720E-1,1.256743153E1
1.131466163E1,-1.176762909E1,-2.781665497E0,1.267863464E-1,1.209259410E1
1.132467163E1,-1.138248001E1,-2.759361877E0,4.412823486E-1,1.172048033E1
1.133468263E1,-1.103774689E1,-2.700234833E0,8.758287048E-1,1.139693820E1
1.134469263E1,-1.071726334E1,-2.586022339E0,1.256487122E0,1.109621579E1
1.135470263E1,-1.044018951E1,-2.463277588E0,1.467248840E0,1.082673140E1
1.136471363E1,-1.026655060E1,-2.400857391E0,1.622026978E0,1.066757465E1
1.137472363E1,-1.005728577E1,-2.305805054E0,1.862127686E0,1.048490598E1
1.138473363E1,-9.815538483E0,-2.169738007E0,1.937570801E0,1.023751627E1
1.139474463E1,-9.574689331E0,-2.059417419E0,1.928888855E0,9.981807858E0
1.140475463E1,-9.524842987E0,-2.025288391E0,1.797462158E0,9.902287473E0
1.141476563E1,-9.466614075E0,-1.859433289E0,1.699865112E0,9.796112269E0
1.142477563E1,-9.425299988E0,-1.696721649E0,1.653012543E0,9.718415235E0
1.143478562E1,-9.672286377E0,-1.415755920E0,1.632056122E0,9.910655668E0
1.144479663E1,-1.013542328E1,-1.093176727E0,1.565893707E0,1.031377058E1
1.145480663E1,-1.067999084E1,-8.690927124E-1,1.251098328E0,1.078808480E1
1.146481663E1,-1.099029556E1,-4.132905579E-1,8.336164856E-1,1.102961115E1
1.147482763E1,-1.112067444E1,7.244934082E-2,2.598596191E-1,1.112394606E1
1.148483763E1,-1.151016449E1,3.691323853E-1,-2.918930054E-1,1.151978068E1
1.149484863E1,-1.208886108E1,5.194198608E-1,-7.785310364E-1,1.212503484E1
1.150485863E1,-1.275587402E1,6.274951172E-1,-1.187779999E0,1.282641390E1
1.151486862E1,-1.321661591E1,6.969506836E-1,-1.463656311E0,1.331566619E1
1.152487963E1,-1.354638016E1,8.333171082E-1,-1.460961914E0,1.365039349E1
1.153488963E1,-1.386506744E1,9.541159058E-1,-1.169517975E0,1.394697834E1
1.154489963E1,-1.429317719E1,8.774752808E-1,-6.439608765E-1,1.433455833E1
1.155491063E1,-1.472682541E1,6.095324707E-1,-1.070274353E-1,1.473982264E1
1.156492063E1,-1.491707977E1,3.248245239E-1,2.475851440E-1,1.492266995E1
1.157493063E1,-1.518157974E1,5.912704468E-2,5.167254639E-1,1.519048599E1
1.158494163E1,-1.541853699E1,-4.655319214E-2,7.303312683E-1,1.543589433E1
1.159495162E1,-1.581521210E1,5.194198608E-2,8.117619324E-1,1.583611660E1
1.160496263E1,-1.609153748E1,4.447251892E-1,6.936575317E-1,1.611261989E1
1.161497263E1,-1.645483200E1,8.544232178E-1,4.688250732E-1,1.648366865E1
1.162498263E1,-1.682366501E1,8.569679260E-1,1.463955688E-1,1.684611320E1
1.163499363E1,-1.727183304E1,2.363584900E-1,-2.273771667E-1,1.727494666E1
1.164500363E1,-1.766701126E1,-8.620573425E-1,-5.743556213E-1,1.769735331E1
1.165501363E1,-1.783271667E1,-2.108215942E0,-6.306385803E-1,1.796797327E1
1.166502463E1,-1.768452484E1,-2.944826202E0,-1.763333130E-1,1.792890163E1
1.167503462E1,-1.725776230E1,-3.253184967E0,6.231541443E-1,1.757275997E1
1.168504563E1,-1.647459091E1,-2.703827362E0,1.364263000E0,1.675064302E1
1.169505563E1,-1.564037567E1,-1.677411804E0,1.773062897E0,1.582968141E1
1.170506563E1,-1.511496826E1,-1.354084167E0,1.864672394E0,1.528963089E1
1.171507663E1,-1.497530869E1,-1.811682587E0,1.584305420E0,1.516746807E1
1.172508663E1,-1.480002319E1,-2.739602966E0,1.043629761E0,1.508758675E1
1.173509663E1,-1.446816330E1,-3.800746307E0,5.893244934E-1,1.497066215E1
1.174510763E1,-1.398661469E1,-4.609364777E0,5.559439087E-1,1.473705220E1
1.175511762E1,-1.368334534E1,-5.638923798E0,7.777825928E-1,1.482013316E1
1.176512763E1,-1.326167221E1,-6.285429382E0,1.162632294E0,1.472176233E1
1.177513863E1,-1.275048523E1,-6.411766663E0,1.473984833E0,1.434776138E1
1.178514863E1,-1.229962280E1,-6.234535217E0,1.662891998E0,1.388939740E1
1.179515963E1,-1.210188400E1,-5.896388397E0,1.733694763E0,1.357308698E1
1.180516963E1,-1.207763443E1,-5.566624146E0,1.627715149E0,1.339798546E1
1.181517963E1,-1.217657867E1,-5.376669159E0,1.324894867E0,1.337658349E1
1.182519063E1,-1.216041229E1,-5.192552032E0,1.021026764E0,1.326200284E1
1.183520063E1,-1.201970490E1,-4.937033386E0,9.078620911E-1,1.302581353E1
1.184521063E1,-1.181867294E1,-4.664450226E0,1.025816803E0,1.274717326E1
1.185522163E1,-1.167317551E1,-4.435426483E0,1.215023346E0,1.254640651E1
1.186523163E1,-1.154429352E1,-4.301904144E0,1.406175842E0,1.239977510E1
1.187524163E1,-1.137948624E1,-4.206702118E0,1.495689697E0,1.222399842E1
1.188525263E1,-1.120779327E1,-4.101620636E0,1.525926819E0,1.203188990E1
1.189526263E1,-1.098326019E1,-3.981270905E0,1.511856079E0,1.177999284E1
1.190527363E1,-1.081860260E1,-3.977678375E0,1.348395996E0,1.160526860E1
1.191528363E1,-1.062370789E1,-3.971241760E0,1.231339417E0,1.140833586E1
1.192529363E1,-1.049108368E1,-3.895349579E0,1.248254242E0,1.126031633E1
1.193530463E1,-1.027837601E1,-3.860023041E0,1.257534943E0,1.105107168E1
1.194531463E1,-1.004111938E1,-3.885619812E0,1.281185760E0,1.084267295E1
1.195532463E1,-9.957443390E0,-3.966002655E0,1.357976074E0,1.080388610E1
1.196533563E1,-9.833052063E0,-4.093687134E0,1.423390045E0,1.074584694E1
1.197534563E1,-9.602830811E0,-4.185146942E0,1.361119537E0,1.056325996E1
1.198535663E1,-9.393565979E0,-4.206253052E0,1.212478638E0,1.036348161E1
1.199536663E1,-9.174421692E0,-4.263733521E0,9.475296021E-1,1.016106536E1
1.200537663E1,-8.961564331E0,-4.314627686E0,6.635700989E-1,9.968248221E0
1.201538762E1,-8.722960510E0,-4.385729828E0,3.354524231E-1,9.769196206E0
1.202539763E1,-8.554111633E0,-4.533023529E0,1.101708984E-1,9.681594175E0
1.203540763E1,-8.350235596E0,-4.726121979E0,3.038681030E-2,9.594977166E0
1.204541863E1,-8.103847961E0,-4.877756653E0,-1.871109009E-2,9.458605175E0
1.205542863E1,-7.959248657E0,-5.034331055E0,-1.369651794E-1,9.418751925E0
1.206543863E1,-7.812703400E0,-5.213059387E0,-2.616558838E-1,9.395891995E0
1.207544963E1,-7.492369537E0,-5.271587677E0,-3.620970154E-1,9.168225137E0
1.208545963E1,-7.300019531E0,-5.451214142E0,-4.065545654E-1,9.119830448E0
1.209547062E1,-7.044201508E0,-5.533542938E0,-4.275109863E-1,8.967922723E0
1.210548063E1,-6.888974304E0,-5.614674225E0,-4.328997803E-1,8.897748920E0
1.211549063E1,-6.699917450E0,-5.638325043E0,-1.631607056E-1,8.758208980E0
1.212550163E1,-6.308182068E0,-5.489983521E0,2.080673218E-1,8.365188107E0
1.213551163E1,-5.816903687E0,-5.326822815E0,5.370831299E-1,7.905685808E0
1.214552163E1,-5.390889587E0,-5.114863586E0,7.216493225E-1,7.466210404E0
1.215553263E1,-4.939278717E0,-4.914131012E0,6.496490479E-1,6.997656874E0
1.216554263E1,-4.689747620E0,-5.058880005E0,2.773731995E-1,6.903834842E0
1.217555263E1,-4.590204620E0,-5.305117950E0,-1.902543640E-1,7.017866602E0
1.218556363E1,-4.604724426E0,-5.508993988E0,-9.033714294E-1,7.236613969E0
1.219557363E1,-4.813839569E0,-5.964047699E0,-1.783990173E0,7.869278067E0
1.220558463E1,-4.803660736E0,-6.394702148E0,-2.390229492E0,8.347488788E0
1.221559463E1,-4.598736877E0,-6.407276001E0,-2.447859650E0,8.257940632E0
1.222560463E1,-4.697082367E0,-6.068380737E0,-1.795067139E0,7.880995722E0
1.223561563E1,-5.309608612E0,-5.592969360E0,-6.369255066E-1,7.738147322E0
1.224562563E1,-6.318959656E0,-5.077890472E0,2.956352234E-1,8.111819954E0
1.225563563E1,-7.264992371E0,-4.688999176E0,6.731501770E-1,8.672944055E0
1.226564663E1,-8.127498779E0,-4.428391113E0,6.098318481E-1,9.275709091E0
1.227565663E1,-8.955876160E0,-4.295168152E0,2.336640930E-1,9.935330198E0
1.228566575E1,-9.679920502E0,-4.271667023E0,-3.128494263E-1,1.058517240E1
1.229567675E1,-1.030981064E1,-4.377796326E0,-9.548643494E-1,1.124139947E1
1.230568675E1,-1.081396225E1,-4.594545593E0,-1.487307129E0,1.184329816E1
1.231569775E1,-1.129446304E1,-4.728966064E0,-1.786534882E0,1.237415542E1
1.232570775E1,-1.174158325E1,-4.787194977E0,-1.811083832E0,1.280867041E1
1.233571775E1,-1.210338089E1,-4.832400970E0,-1.659449158E0,1.313764437E1
1.234572875E1,-1.235575607E1,-4.799619141E0,-1.457519073E0,1.333511957E1
1.235573875E1,-1.238554413E1,-4.662953339E0,-1.196461945E0,1.328820373E1
1.236574875E1,-1.226339813E1,-4.428241425E0,-9.213340759E-1,1.307092622E1
1.237575975E1,-1.206446182E1,-4.101770325E0,-5.499563599E-1,1.275453687E1
1.238576975E1,-1.193183762E1,-3.693269806E0,-1.077758789E-2,1.249036056E1
1.239577975E1,-1.190474396E1,-3.291804657E0,4.230203247E-1,1.235871566E1
1.240579075E1,-1.187480621E1,-2.920576630E0,6.074368286E-1,1.224376453E1
1.241580075E1,-1.174382858E1,-2.433489532E0,7.559280396E-1,1.201710482E1
1.242581175E1,-1.177316757E1,-2.001487885E0,7.842192078E-1,1.196780799E1
1.243582175E1,-1.172197403E1,-1.671424255E0,7.238946533E-1,1.186264547E1
1.244583175E1,-1.156150772E1,-1.547481995E0,4.882846069E-1,1.167482690E1
1.245584275E1,-1.150821854E1,-1.553918610E0,5.307962036E-1,1.162477963E1
1.246585275E1,-1.131691635E1,-1.463207245E0,8.683442688E-1,1.144410734E1
1.247586275E1,-1.096664474E1,-1.454525299E0,9.900411987E-1,1.110689526E1
1.248587375E1,-1.071786209E1,-1.504970398E0,1.081501007E0,1.087690894E1
1.249588375E1,-1.058718384E1,-1.487307129E0,1.239871674E0,1.076279824E1
1.250589375E1,-1.051473450E1,-1.319206696E0,1.309476929E0,1.067776558E1
1.251590475E1,-1.045111679E1,-1.100810852E0,1.382225647E0,1.059944218E1
1.252591475E1,-1.036953644E1,-8.933422852E-1,1.476978607E0,1.051222204E1
1.253592575E1,-1.046892975E1,-6.887178040E-1,1.579216003E0,1.060974766E1
1.254593575E1,-1.065349594E1,-6.345304871E-1,1.760039978E0,1.081653112E1
1.255594575E1,-1.079046112E1,-5.884263611E-1,1.855242004E0,1.096458935E1
1.256595675E1,-1.095227463E1,-4.474195862E-1,1.810185699E0,1.110987291E1
1.257596675E1,-1.137664215E1,-4.044589233E-1,1.559307404E0,1.149012677E1
1.258597675E1,-1.198288147E1,-2.881507874E-1,1.178948364E0,1.204418525E1
1.259598775E1,-1.215292786E1,2.767744446E-1,7.791297913E-1,1.218102224E1
1.260599775E1,-1.234243378E1,7.029382324E-1,2.580633545E-1,1.236512800E1
1.261600775E1,-1.254256760E1,8.970845032E-1,-2.249821472E-1,1.257662035E1
1.262601875E1,-1.300959641E1,1.000220032E0,-4.394860840E-1,1.305538918E1
1.263602875E1,-1.373543701E1,1.097667389E0,-2.950364685E-1,1.378238550E1
1.264603975E1,-1.459584778E1,1.147513733E0,-1.038839722E-1,1.464125514E1
1.265604975E1,-1.541704010E1,1.164428558E0,-1.059796143E-1,1.546131466E1
1.266605975E1,-1.614587448E1,1.119372253E0,-1.234931946E-1,1.618510141E1
1.267607075E1,-1.658146866E1,1.204545135E0,3.068618774E-2,1.662519093E1
1.268608075E1,-1.713486786E1,1.103654938E0,4.417314148E-1,1.717605535E1
1.269609075E1,-1.735266495E1,1.203497314E0,1.099463654E0,1.742906213E1
1.270610175E1,-1.721614883E1,1.342408447E0,1.800605621E0,1.736202816E1
1.271611175E1,-1.706346634E1,9.749226379E-1,2.330204315E0,1.724941187E1
1.272612175E1,-1.706002350E1,-2.091151428E-1,2.352807312E0,1.722277077E1
1.273613275E1,-1.714908829E1,-1.767674103E0,1.975591736E0,1.735277682E1
1.274614275E1,-1.708202774E1,-2.888692932E0,1.384171600E0,1.737976265E1
1.275615375E1,-1.664284103E1,-3.432811432E0,7.523355103E-1,1.700983130E1
1.276616375E1,-1.629032410E1,-3.045866089E0,4.757107544E-1,1.657945295E1
1.277617375E1,-1.579560287E1,-1.872605896E0,5.867797852E-1,1.591703595E1
1.278618475E1,-1.555161026E1,-1.128652954E0,5.974076843E-1,1.560395255E1
1.279619475E1,-1.565190170E1,-1.178798676E0,4.156855774E-1,1.570173200E1
1.280620475E1,-1.571746536E1,-2.012864227E0,2.091151428E-1,1.584721013E1
1.281621575E1,-1.537437881E1,-3.047512665E0,-5.493576050E-2,1.567360441E1
1.282622575E1,-1.468895416E1,-3.737278290E0,-2.260299683E-2,1.515695003E1
1.283623575E1,-1.422581726E1,-4.407135315E0,1.941462708E-1,1.489410659E1
1.284624675E1,-1.406924286E1,-5.133574677E0,4.351451111E-1,1.498287472E1
1.285625675E1,-1.387494690E1,-5.535039825E0,6.233038330E-1,1.495123155E1
1.286626675E1,-1.367211868E1,-5.528603210E0,8.096662903E-1,1.476982878E1
1.287627775E1,-1.342857513E1,-5.274880829E0,8.994795227E-1,1.445545092E1
1.288628775E1,-1.312515610E1,-5.016368408E0,9.726773071E-1,1.408473556E1
1.289629875E1,-1.289807831E1,-4.959786072E0,1.053808594E0,1.385894709E1
1.290630875E1,-1.271141647E1,-4.944218445E0,9.925859070E-1,1.367518305E1
1.291631875E1,-1.243374390E1,-4.909939728E0,9.788145447E-1,1.340386412E1
1.292632975E1,-1.209529770E1,-4.764891357E0,9.900411987E-1,1.303766074E1
1.293633975E1,-1.171254364E1,-4.543202362E0,8.605604553E-1,1.259225677E1
1.294634975E1,-1.149324966E1,-4.366869049E0,6.509962463E-1,1.231211311E1
1.295636075E1,-1.141391464E1,-4.191134491E0,4.111949158E-1,1.216602388E1
1.296637075E1,-1.137439682E1,-4.005071411E0,1.667532349E-1,1.206007076E1
1.297638075E1,-1.122231308E1,-3.817361755E0,-1.025367737E-1,1.185424293E1
1.298639175E1,-1.099822906E1,-3.683240662E0,-4.472698975E-1,1.160721132E1
1.299640175E1,-1.087862778E1,-3.626808014E0,-7.352709961E-1,1.149081817E1
1.300641275E1,-1.076561279E1,-3.680546265E0,-7.048841858E-1,1.139919740E1
1.301642275E1,-1.059152481E1,-3.719615021E0,-3.716770935E-1,1.123183322E1
1.302643275E1,-1.038899597E1,-3.780688019E0,1.736389160E-1,1.105689783E1
1.303644375E1,-1.009680359E1,-3.907324677E0,6.065386963E-1,1.084345508E1
1.304645375E1,-9.759554901E0,-4.040547638E0,8.183482361E-1,1.059455666E1
1.305646375E1,-9.432485046E0,-4.134103088E0,9.095086670E-1,1.033875179E1
1.306647475E1,-9.152716827E0,-4.186045074E0,8.400531006E-1,1.009954890E1
1.307648475E1,-8.895701294E0,-4.286336517E0,6.150709534E-1,9.893659309E0
1.308649475E1,-8.622968445E0,-4.446503448E0,4.543052673E-1,9.712536795E0
1.309650575E1,-8.357720032E0,-4.605323181E0,3.336561584E-1,9.548393172E0
1.310651575E1,-8.146658936E0,-4.697381744E0,1.769320679E-1,9.405570266E0
1.311652575E1,-8.123307495E0,-4.808600464E0,3.517684937E-2,9.439915280E0
1.312653675E1,-7.971074066E0,-4.767436066E0,-4.385879517E-2,9.288077950E0
1.313654675E1,-7.976013794E0,-5.154830475E0,-1.588197327E-1,9.498120707E0
1.314655775E1,-7.771389313E0,-5.391937408E0,-1.968406677E-1,9.460773072E0
1.315656775E1,-7.340435486E0,-5.453758850E0,-1.896556091E-1,9.146663215E0
1.316657775E1,-6.797215118E0,-5.490881653E0,-2.052232361E-1,8.740367914E0
1.317658875E1,-6.283333740E0,-5.590424652E0,-2.516267395E-1,8.414062437E0
1.318659875E1,-5.887856140E0,-5.707181854E0,-2.573149109E-1,8.203961580E0
1.319660875E1,-5.497917023E0,-5.755980377E0,-2.604583740E-1,7.964059283E0
1.320661975E1,-5.135370941E0,-5.679190063E0,-9.864486694E-2,7.657347144E0
1.321662975E1,-4.811594238E0,-5.521567841E0,2.059716797E-1,7.326771108E0
1.322663975E1,-4.391417999E0,-5.298082581E0,5.418731689E-1,6.902742760E0
1.323665075E1,-3.956123199E0,-5.012177124E0,7.438032532E-1,6.428535881E0
1.324666075E1,-3.671564941E0,-4.781357117E0,7.310797119E-1,6.072581209E0
1.325667075E1,-3.528911591E0,-4.784500580E0,4.635859680E-1,5.963184951E0
1.326668175E1,-3.596121826E0,-5.013674011E0,-9.909393311E-2,6.170805368E0
1.327669175E1,-3.839515686E0,-5.390440521E0,-9.168434143E-1,6.681267212E0
1.328670313E1,-4.285438385E0,-5.837261353E0,-1.838027802E0,7.471074116E0
1.329671313E1,-4.703518982E0,-6.171665955E0,-2.608325958E0,8.186324925E0
1.330672313E1,-4.981640625E0,-6.166875916E0,-2.940485229E0,8.455386169E0
1.331673413E1,-5.398374023E0,-5.852379913E0,-2.612217865E0,8.379527130E0
1.332674413E1,-6.079607391E0,-5.519771576E0,-1.758692780E0,8.397767833E0
1.333675413E1,-7.039561157E0,-5.279072113E0,-8.175997925E-1,8.836995705E0
1.334676513E1,-8.020321655E0,-5.131628723E0,4.340972900E-3,9.521512046E0
1.335677513E1,-9.028475189E0,-5.116061096E0,6.420149231E-1,1.039709712E1
1.336678513E1,-9.774224396E0,-5.344186707E0,1.056502991E0,1.118981647E1
1.337679612E1,-1.025966492E1,-5.763015747E0,1.055455170E0,1.181469679E1
1.338680613E1,-1.068612808E1,-6.084397430E0,6.623725891E-1,1.231470515E1
1.339681613E1,-1.123788071E1,-6.195915527E0,1.324745178E-1,1.283342828E1
1.340682713E1,-1.199889816E1,-6.166875916E0,-3.466790771E-1,1.349533631E1
1.341683713E1,-1.304043228E1,-6.057154083E0,-8.234376526E-1,1.440208455E1
1.342684813E1,-1.389620270E1,-5.853876801E0,-1.299447784E0,1.513475760E1
1.343685813E1,-1.436592590E1,-5.533842316E0,-1.666634216E0,1.548486059E1
1.344686813E1,-1.444915283E1,-5.107828217E0,-1.880988464E0,1.544040298E1
1.345687912E1,-1.428105240E1,-4.649481354E0,-1.916315002E0,1.514062078E1
1.346688913E1,-1.406220749E1,-4.181853790E0,-1.570534058E0,1.475466563E1
1.347689913E1,-1.356374405E1,-3.666774902E0,-1.098565521E0,1.409351755E1
1.348691013E1,-1.316602112E1,-3.475472717E0,-7.773335266E-1,1.363918143E1
1.349692013E1,-1.278775772E1,-3.523522797E0,-2.912942505E-1,1.326750967E1
1.350693013E1,-1.248882935E1,-3.529360657E0,4.507127380E-1,1.298577634E1
1.351694113E1,-1.228989304E1,-3.498225403E0,1.216071167E0,1.283580465E1
1.352695113E1,-1.216520233E1,-3.456312561E0,1.992356873E0,1.280264544E1
1.353696113E1,-1.221085739E1,-3.443289642E0,2.642604675E0,1.295934571E1
1.354697213E1,-1.267144958E1,-3.093167725E0,3.168161774E0,1.342276314E1
1.355698213E1,-1.325972626E1,-2.541265411E0,3.495081940E0,1.394610942E1
1.356699213E1,-1.342303665E1,-1.955683136E0,3.501219177E0,1.400932351E1
1.357700313E1,-1.340821747E1,-1.503772888E0,3.305576019E0,1.389130884E1
1.358701313E1,-1.333472031E1,-1.156495056E0,2.995121613E0,1.371579381E1
1.359702413E1,-1.307680664E1,-1.000220032E0,2.398911438E0,1.333259495E1
1.360703413E1,-1.282952087E1,-7.490423584E-1,1.704056396E0,1.296385277E1
1.361704413E1,-1.247356110E1,-4.020639038E-1,1.084345093E0,1.252705816E1
1.362705513E1,-1.210697342E1,-1.278341675E-1,6.749464417E-1,1.212644629E1
1.363706513E1,-1.199410812E1,1.387614441E-1,4.652325439E-1,1.200392960E1
1.364707513E1,-1.200787949E1,3.138972473E-1,3.592529297E-1,1.201735262E1
1.365708613E1,-1.220576797E1,3.772155762E-1,3.354524231E-1,1.221620202E1
1.366709613E1,-1.259585678E1,5.583389282E-1,4.243675232E-1,1.261536516E1
1.367710613E1,-1.290167084E1,8.523275757E-1,4.394860840E-1,1.293726094E1
1.368711713E1,-1.317380493E1,1.163680115E0,2.863545227E-1,1.322820043E1
1.369712713E1,-1.338800949E1,1.347946930E0,2.260299683E-2,1.345571514E1
1.370713713E1,-1.379621063E1,1.333277435E0,-2.715353394E-1,1.386314495E1
1.371714813E1,-1.418644913E1,1.175355835E0,-4.406835938E-1,1.424187495E1
1.372715813E1,-1.434781357E1,1.070424042E0,-4.388873291E-1,1.439438029E1
1.373716913E1,-1.453806793E1,8.662486267E-1,-3.095562744E-1,1.456714217E1
1.374717912E1,-1.497935028E1,5.107379150E-1,-1.311273193E-1,1.498862844E1
1.375718913E1,-1.553499481E1,1.772314453E-1,1.736389160E-2,1.553601546E1
1.376720013E1,-1.607881393E1,-7.619155884E-2,2.183958435E-1,1.608047759E1
1.377721013E1,-1.641067383E1,-2.432441711E-1,2.647993469E-1,1.641461245E1
1.378722013E1,-1.640393784E1,-3.749702454E-1,1.718426514E-1,1.640912274E1
1.379723113E1,-1.636531815E1,-5.798941040E-1,9.190887451E-2,1.637584692E1
1.380724113E1,-1.649060760E1,-1.154549103E0,1.181044006E-1,1.653139654E1
1.381725113E1,-1.677621368E1,-2.221530304E0,2.165995789E-1,1.692404969E1
1.382726212E1,-1.724773315E1,-3.431164856E0,3.709286499E-1,1.758962135E1
1.383727213E1,-1.736778351E1,-4.172124023E0,6.632707214E-1,1.787418392E1
1.384728213E1,-1.730296829E1,-4.628524933E0,1.073417816E0,1.794347181E1
1.385729313E1,-1.697305435E1,-4.371060333E0,1.501228180E0,1.759103262E1
1.386730313E1,-1.621562943E1,-3.290906525E0,1.755549316E0,1.663907019E1
1.387731313E1,-1.582299591E1,-2.657124481E0,1.798509979E0,1.614503479E1
1.388732413E1,-1.568154007E1,-2.794389038E0,1.597478027E0,1.600847417E1
1.389733413E1,-1.558139832E1,-3.582649841E0,1.196611633E0,1.603269262E1
1.390734413E1,-1.536315216E1,-4.673730927E0,8.767268372E-1,1.608225280E1
1.391735513E1,-1.492037292E1,-5.493426361E0,7.926017761E-1,1.591928010E1
1.392736513E1,-1.410876068E1,-6.028563538E0,8.890013123E-1,1.536850772E1
1.393737613E1,-1.337573502E1,-6.904392242E0,1.001417542E0,1.508587938E1
1.394738613E1,-1.260768219E1,-7.472161560E0,1.037342834E0,1.469227446E1
1.395739613E1,-1.186417831E1,-7.582332458E0,1.145418091E0,1.412665832E1
1.396740713E1,-1.133053802E1,-7.344327393E0,1.382824402E0,1.357322512E1
1.397741713E1,-1.113474518E1,-6.962022400E0,1.643582153E0,1.323456340E1
1.398742713E1,-1.126317810E1,-6.588549042E0,1.700164490E0,1.315897863E1
1.399743813E1,-1.174263107E1,-6.441704407E0,1.372046814E0,1.346356018E1
1.400744813E1,-1.195863190E1,-6.140680389E0,8.843609619E-1,1.347215376E1
1.401745813E1,-1.195309341E1,-5.712420959E0,4.462220764E-1,1.325546338E1
1.402746913E1,-1.184801193E1,-5.248535614E0,8.681945801E-2,1.295878275E1
1.403747913E1,-1.155911270E1,-4.845274200E0,-1.800755310E-1,1.253483928E1
1.404748913E1,-1.128308670E1,-4.529730377E0,-3.435356140E-1,1.216324461E1
1.405750013E1,-1.090661957E1,-4.368365936E0,-4.047583008E-1,1.175588366E1
1.406751013E1,-1.049826874E1,-4.255500641E0,-3.341052246E-1,1.133289718E1
1.407752013E1,-1.008946884E1,-4.135749664E0,-1.604663086E-1,1.090539115E1
1.408753113E1,-9.649384003E0,-3.963308258E0,1.423539734E-1,1.043257824E1
1.409754113E1,-9.267677765E0,-3.873345337E0,4.528083801E-1,1.005473474E1
1.410755213E1,-8.935967560E0,-3.792513428E0,7.171586609E-1,9.733909332E0
1.411756212E1,-8.583600311E0,-3.766467590E0,9.190887451E-1,9.418555969E0
1.412757213E1,-8.278834076E0,-3.753893738E0,1.080303497E0,9.154117516E0
1.413758313E1,-8.004454651E0,-3.819607086E0,1.086889801E0,8.935436307E0
1.414759313E1,-7.702382813E0,-3.888912964E0,1.015787659E0,8.688047514E0
1.415760313E1,-7.417974243E0,-3.916605377E0,9.072633362E-1,8.437373188E0
1.416761413E1,-7.128925323E0,-3.864513702E0,8.116122437E-1,8.149524947E0
1.417762413E1,-6.915469208E0,-3.895349579E0,7.569758606E-1,7.973109504E0
1.418763413E1,-6.857988739E0,-4.045487366E0,7.400610352E-1,7.996603523E0
1.419764512E1,-6.745871887E0,-4.239334259E0,6.277944946E-1,7.992050326E0
1.420765513E1,-6.562802582E0,-4.368665314E0,5.530998230E-1,7.903260958E0
1.421766513E1,-6.452182617E0,-4.421505432E0,5.771997070E-1,7.843056185E0
1.422767613E1,-6.435716858E0,-4.529580688E0,5.598358154E-1,7.889801571E0
1.423768613E1,-6.262527008E0,-4.516258392E0,4.736151123E-1,7.735641258E0
1.424769613E1,-6.328240356E0,-4.981041870E0,4.089495850E-1,8.063785952E0
1.425770713E1,-6.314468994E0,-5.222938843E0,2.290237427E-1,8.197808287E0
1.426771713E1,-6.114933929E0,-5.179379425E0,1.832189941E-1,8.015731869E0
1.427772713E1,-5.954766998E0,-5.033582611E0,4.126918030E-1,7.808105944E0
1.428773829E1,-5.922134857E0,-4.934638367E0,7.029382324E-1,7.740572281E0
1.429774829E1,-5.936954041E0,-4.833149414E0,8.930429077E-1,7.707417348E0
1.430775929E1,-5.927523651E0,-4.707111511E0,9.490264893E-1,7.628439335E0
1.431776929E1,-5.773344269E0,-4.584815826E0,9.527687073E-1,7.433694130E0
1.432777929E1,-5.407055969E0,-4.423601074E0,9.294172668E-1,7.047575269E0
1.433779029E1,-4.967420197E0,-4.459975433E0,9.325607300E-1,6.740646393E0
1.434780029E1,-4.687352600E0,-4.691394196E0,8.843609619E-1,6.690481911E0
1.435781029E1,-4.566104736E0,-4.930746460E0,7.246430969E-1,6.759192314E0
1.436782129E1,-4.965174866E0,-5.334007874E0,4.113446045E-1,7.298890726E0
1.437783129E1,-5.495372314E0,-5.868995361E0,-1.460961914E-1,8.041490379E0
1.438784129E1,-6.011499023E0,-6.513105927E0,-7.969427490E-1,8.899089114E0
1.439785229E1,-6.374643860E0,-6.959926758E0,-1.170266418E0,9.510320095E0
1.440786229E1,-6.480922852E0,-6.418802032E0,-1.081351318E0,9.185461405E0
1.441787229E1,-6.957082672E0,-5.652395782E0,-5.026547241E-1,8.977930672E0
1.442788329E1,-7.815248108E0,-5.119054871E0,2.770738220E-1,9.346635526E0
1.443789329E1,-8.639883270E0,-4.781806183E0,9.870474243E-1,9.924087661E0
1.444790329E1,-9.699380035E0,-4.520150299E0,1.501078491E0,1.080569148E1
1.445791429E1,-1.088506439E1,-4.527335358E0,1.658251648E0,1.190509096E1
1.446792429E1,-1.197315170E1,-4.717889099E0,1.438358917E0,1.294927471E1
1.447793429E1,-1.315928513E1,-4.756957855E0,9.626481628E-1,1.402576645E1
1.448794529E1,-1.403900574E1,-4.545747070E0,3.559597778E-1,1.476090126E1
1.449795529E1,-1.461096634E1,-4.175716553E0,-2.998265076E-1,1.519890924E1
1.450796629E1,-1.509910126E1,-3.716770935E0,-7.915539551E-1,1.556996476E1
1.451797629E1,-1.536330185E1,-3.231779480E0,-1.074016571E0,1.573623061E1
1.452798629E1,-1.521915161E1,-2.752625885E0,-1.164129181E0,1.550982662E1
1.453799729E1,-1.481529144E1,-2.339185638E0,-1.048868866E0,1.503545064E1
1.454800729E1,-1.441562256E1,-2.120191040E0,-5.888754272E-1,1.458259778E1
1.455801729E1,-1.376806915E1,-2.103575592E0,1.330732727E-1,1.392847684E1
1.456802829E1,-1.299298096E1,-2.110461273E0,7.970924377E-1,1.318737871E1
1.457803829E1,-1.204844513E1,-2.099533997E0,1.401236115E0,1.231001770E1
1.458804829E1,-1.124192230E1,-2.060315552E0,1.980082397E0,1.159941565E1
1.459805929E1,-1.077713882E1,-2.019300842E0,2.425406342E0,1.122973255E1
1.460806929E1,-1.074854828E1,-1.811532898E0,2.661465454E0,1.122035382E1
1.461807929E1,-1.092607910E1,-1.391955414E0,2.652184753E0,1.132920246E1
1.462809029E1,-1.097173416E1,-1.055155792E0,2.304757233E0,1.126073755E1
1.463810029E1,-1.072010742E1,-6.833290100E-1,1.644629974E0,1.086703499E1
1.464811029E1,-1.028226791E1,-3.121009827E-1,9.851014709E-1,1.033406335E1
1.465812129E1,-1.000519409E1,-1.836680603E-1,5.701643372E-1,1.002310980E1
1.466813129E1,-9.806407471E0,-2.106120300E-1,3.236270142E-1,9.814006285E0
1.467814129E1,-9.604926453E0,-2.888992310E-1,2.121089172E-1,9.611610953E0
1.468815229E1,-9.467961273E0,-4.168830872E-1,5.177732849E-1,9.491268164E0
1.469816229E1,-9.475894775E0,-4.938230896E-1,1.068328400E0,9.548705075E0
1.470817229E1,-9.670340424E0,-4.396357727E-1,1.476230164E0,9.792242798E0
1.471818329E1,-9.928852844E0,-4.529580688E-1,1.822310486E0,1.010485553E1
1.472819329E1,-1.031684601E1,-4.406835938E-1,1.988914032E0,1.051604929E1
1.473820329E1,-1.073118439E1,-3.827540588E-1,1.818119202E0,1.089083911E1
1.474821429E1,-1.094958023E1,1.017883301E-1,1.534309387E0,1.105702371E1
1.475822429E1,-1.123907822E1,5.010081482E-1,1.326541443E0,1.132817728E1
1.476823529E1,-1.169188660E1,6.496490479E-1,1.066382446E0,1.175837691E1
1.477824529E1,-1.217762650E1,6.752458191E-1,8.162525940E-1,1.222361699E1
1.478825529E1,-1.254780670E1,7.791297913E-1,6.664141846E-1,1.258962287E1
1.479826629E1,-1.306288559E1,8.952882385E-1,5.911207581E-1,1.310686632E1
1.480827629E1,-1.364053436E1,9.226812744E-1,4.330494690E-1,1.367856170E1
1.481828629E1,-1.417342621E1,9.430389404E-1,2.210902405E-1,1.420648492E1
1.482829729E1,-1.453447540E1,7.878117371E-1,-1.691482544E-2,1.455582044E1
1.483830729E1,-1.469883362E1,5.176235962E-1,-2.474354553E-1,1.471002611E1
1.484831729E1,-1.496453110E1,1.871109009E-1,-3.031196594E-1,1.496877026E1
1.485832829E1,-1.527393768E1,-5.284011841E-2,-2.245330811E-3,1.527402925E1
1.486833829E1,-1.549577637E1,-2.805166626E-1,3.885919189E-1,1.550318608E1
1.487834829E1,-1.550999680E1,-3.716770935E-1,7.917036438E-1,1.553463676E1
1.488835929E1,-1.542691956E1,-4.463717651E-1,1.209335175E0,1.548068430E1
1.489836929E1,-1.549008820E1,-6.855743408E-1,1.435514832E0,1.557156213E1
1.490837929E1,-1.568423447E1,-1.138233032E0,1.523681488E0,1.579912626E1
1.491839029E1,-1.603360794E1,-1.817520447E0,1.492396545E0,1.620516003E1
1.492840029E1,-1.632580032E1,-2.677631836E0,1.418450317E0,1.660462194E1
1.493841029E1,-1.628867752E1,-3.224744110E0,1.415606232E0,1.666505118E1
1.494842129E1,-1.595127914E1,-3.151696014E0,1.716929626E0,1.635005631E1
1.495843129E1,-1.538919800E1,-2.438878326E0,2.093097382E0,1.572121494E1
1.496844129E1,-1.497156647E1,-1.806593170E0,2.346969452E0,1.526171180E1
1.497845229E1,-1.489971588E1,-1.812431030E0,2.360142059E0,1.519396953E1
1.498846229E1,-1.499880981E1,-2.244133301E0,2.242786102E0,1.533070512E1
1.499847229E1,-1.508997025E1,-3.008593597E0,2.296524353E0,1.555740536E1
1.500848329E1,-1.473101669E1,-3.911815338E0,2.261946259E0,1.540848964E1
1.501849329E1,-1.400951706E1,-4.457879791E0,2.129771118E0,1.485514004E1
1.502850429E1,-1.359622650E1,-5.362897797E0,2.154320068E0,1.477359614E1
1.503851429E1,-1.308129730E1,-6.064937897E0,2.359094238E0,1.461058303E1
1.504852429E1,-1.254556137E1,-6.302942963E0,2.667902069E0,1.429111268E1
1.505853529E1,-1.197674423E1,-6.292764130E0,2.992876282E0,1.385635563E1
1.506854529E1,-1.157033936E1,-6.118376770E0,3.289559326E0,1.349549879E1
1.507855529E1,-1.141241776E1,-5.920787659E0,3.416645050E0,1.330309997E1
1.508856629E1,-1.137454651E1,-5.651347961E0,3.264112244E0,1.311382747E1
1.509857629E1,-1.122440872E1,-5.220693512E0,2.745590515E0,1.267995501E1
1.510858629E1,-1.124955643E1,-4.698130188E0,2.088756409E0,1.236882575E1
1.511859729E1,-1.138262970E1,-4.300856323E0,1.563947754E0,1.226815213E1
1.512860729E1,-1.141765686E1,-4.061504059E0,1.193318481E0,1.217713893E1
1.513861729E1,-1.133487900E1,-3.767216034E0,1.095721436E0,1.199466565E1
1.514862829E1,-1.120405106E1,-3.573369141E0,1.119671631E0,1.181327184E1
1.515863829E1,-1.104268661E1,-3.456911316E0,1.224603424E0,1.163575597E1
1.516864829E1,-1.083671494E1,-3.424129486E0,1.301244049E0,1.143906855E1
1.517865929E1,-1.049078430E1,-3.463946686E0,1.281335449E0,1.112192890E1
1.518866929E1,-1.016296600E1,-3.466042328E0,1.327289886E0,1.081947438E1
1.519867929E1,-9.925110626E0,-3.445834351E0,1.415905609E0,1.060124446E1
1.520869029E1,-9.677076416E0,-3.415148163E0,1.503772888E0,1.037161404E1
1.521870029E1,-9.448950806E0,-3.423530731E0,1.545536041E0,1.016818153E1
1.522871029E1,-9.326655121E0,-3.510799255E0,1.557211761E0,1.008648183E1
1.523872129E1,-9.118138733E0,-3.612737274E0,1.657952271E0,9.946915617E0
1.524873129E1,-8.937464447E0,-3.693569183E0,1.728156281E0,9.823810268E0
1.525874129E1,-8.895701294E0,-3.801794128E0,1.708397369E0,9.823734609E0
1.526875229E1,-8.867410126E0,-3.953279114E0,1.562750244E0,9.833695461E0
1.527876229E1,-8.818312225E0,-4.194128265E0,1.246757355E0,9.844173216E0
1.528877242E1,-8.666976929E0,-4.463418274E0,8.681945801E-1,9.787356824E0
1.529878342E1,-8.505762177E0,-4.652624817E0,5.414241028E-1,9.710203291E0
1.530879342E1,-8.314310303E0,-4.823719025E0,2.766247559E-1,9.616264467E0
1.531880342E1,-8.094417572E0,-4.878355408E0,2.016307068E-1,9.452967907E0
1.532881442E1,-7.809410248E0,-4.861290894E0,2.811154175E-1,9.203155081E0
1.533882442E1,-7.787555695E0,-5.143753510E0,3.999682617E-1,9.341530842E0
1.534883542E1,-7.697143707E0,-5.041516113E0,4.580474854E-1,9.212638790E0
1.535884542E1,-7.386689301E0,-4.943919067E0,4.218228149E-1,8.898508249E0
1.536885542E1,-7.026238861E0,-4.944068756E0,3.519181824E-1,8.598586791E0
1.537886642E1,-6.633605347E0,-4.952301636E0,2.098635864E-1,8.280945243E0
1.538887642E1,-6.095923462E0,-4.926255798E0,1.666035461E-1,7.839390014E0
1.539888642E1,-5.550158386E0,-4.896916809E0,3.294648743E-1,7.408954005E0
1.540889742E1,-5.029990082E0,-4.825664978E0,5.581892395E-1,6.992811876E0
1.541890742E1,-4.513563995E0,-4.738396454E0,6.933581543E-1,6.580684343E0
1.542891742E1,-3.915707245E0,-4.660408630E0,8.313711548E-1,6.143561656E0
1.543892842E1,-3.280428314E0,-4.469555511E0,9.202862549E-1,5.620059002E0
1.544893842E1,-3.028502197E0,-4.324357452E0,8.137078857E-1,5.341723828E0
1.545894842E1,-3.419189758E0,-4.384981384E0,4.222718811E-1,5.576489387E0
1.546895942E1,-4.282743988E0,-4.522096252E0,-2.306703186E-1,6.232532341E0
1.547896942E1,-5.355712738E0,-4.555925903E0,-1.189127197E0,7.131209102E0
1.548897942E1,-6.742429047E0,-4.901706848E0,-2.324815521E0,8.654007550E0
1.549899042E1,-7.719896393E0,-5.369334412E0,-3.124901733E0,9.909165615E0
1.550900042E1,-8.019872589E0,-5.259612579E0,-3.500620422E0,1.020961430E1
1.551901042E1,-7.912845154E0,-4.741240540E0,-3.205284576E0,9.765568570E0
1.552902142E1,-8.105045471E0,-4.298910370E0,-2.200723572E0,9.434806659E0
1.553903142E1,-8.739575958E0,-4.190086670E0,-1.012045441E0,9.744806320E0
1.554904142E1,-9.457033997E0,-4.346212006E0,1.202000427E-1,1.040862618E1
1.555905242E1,-9.971813507E0,-4.591102753E0,1.015338593E0,1.102479939E1
1.556906242E1,-1.037761963E1,-4.902155914E0,1.619482269E0,1.159089490E1
1.557907242E1,-1.066397415E1,-5.257966003E0,1.852248230E0,1.203317808E1
1.558908342E1,-1.089015381E1,-5.459447021E0,1.763782196E0,1.230901862E1
1.559909342E1,-1.122680374E1,-5.472619629E0,1.441801758E0,1.257256856E1
1.560910342E1,-1.160162430E1,-5.317991180E0,8.295748901E-1,1.278932801E1
1.561911442E1,-1.181388290E1,-5.100942535E0,1.957928467E-1,1.286956794E1
1.562912442E1,-1.194665680E1,-4.794529724E0,-3.278182983E-1,1.287701785E1
1.563913442E1,-1.194186676E1,-4.453239441E0,-7.027885437E-1,1.276453818E1
1.564914542E1,-1.180445251E1,-4.182901611E0,-9.472302246E-1,1.255941918E1
1.565915542E1,-1.154923325E1,-3.794609070E0,-9.416917419E-1,1.219305663E1
1.566916542E1,-1.134850067E1,-3.399730225E0,-8.044271851E-1,1.187407833E1
1.567917642E1,-1.135314102E1,-3.196752319E0,-6.435118103E-1,1.181216085E1
1.568918642E1,-1.142244690E1,-2.913092194E0,-4.867877197E-1,1.179810839E1
1.569919642E1,-1.156809402E1,-2.682421875E0,-3.059637451E-1,1.187896461E1
1.570920742E1,-1.163949554E1,-2.342329102E0,-1.438508606E-1,1.187371278E1
1.571921742E1,-1.168694687E1,-2.059417419E0,4.939727783E-3,1.186701107E1
1.572922742E1,-1.172242310E1,-1.921554108E0,3.603007507E-1,1.188433381E1
1.573923842E1,-1.169443130E1,-1.815724182E0,8.231382751E-1,1.186314185E1
1.574924842E1,-1.184666473E1,-1.852547607E0,1.240171051E0,1.205460170E1
1.575925942E1,-1.204185883E1,-1.633103943E0,1.664987640E0,1.226562580E1
1.576926942E1,-1.215517319E1,-1.234183502E0,1.987417145E0,1.237825800E1
1.577927942E1,-1.224977646E1,-8.647517395E-1,2.287543030E0,1.249150399E1
1.578929042E1,-1.230007187E1,-6.304888916E-1,2.492766266E0,1.256595272E1
1.579930042E1,-1.242102036E1,-4.225712585E-1,2.503843231E0,1.267791560E1
1.580931042E1,-1.262639328E1,-9.220825195E-2,2.383044434E0,1.284963853E1
1.581932142E1,-1.272878036E1,3.227288818E-1,2.194586334E0,1.292061193E1
1.582933142E1,-1.282907181E1,8.367599487E-1,1.872306519E0,1.299195068E1
1.583934142E1,-1.307291473E1,1.256786499E0,1.428778839E0,1.321067829E1
1.584935242E1,-1.325778030E1,1.550475769E0,8.527766418E-1,1.337534828E1
1.585936242E1,-1.340447525E1,1.696871338E0,2.531236267E-1,1.351382258E1
1.586937242E1,-1.347946930E1,1.776655426E0,-1.833686829E-1,1.359728727E1
1.587938342E1,-1.357736572E1,1.817969513E0,-5.001100159E-1,1.370766148E1
1.588939342E1,-1.380399445E1,1.878144379E0,-6.903643799E-1,1.394827201E1
1.589940342E1,-1.410950912E1,1.897154846E0,-8.726852417E-1,1.426320524E1
1.590941442E1,-1.464045502E1,1.669777679E0,-9.949809265E-1,1.476892236E1
1.591942442E1,-1.555220901E1,1.157991943E0,-9.122030640E-1,1.562191618E1
1.592943442E1,-1.629780853E1,7.235952759E-1,-7.396119690E-1,1.633062090E1
1.593944542E1,-1.664673294E1,4.023632813E-1,-4.903802490E-1,1.665881408E1
1.594945542E1,-1.668041290E1,-7.259902954E-2,-7.214996338E-2,1.668072693E1
1.595946542E1,-1.623104736E1,-4.625381470E-1,4.794529724E-1,1.624471345E1
1.596947642E1,-1.571746536E1,-7.294331360E-1,9.825567627E-1,1.576503117E1
1.597948642E1,-1.525223282E1,-1.016386414E0,1.332978058E0,1.534406979E1
1.598949642E1,-1.500674332E1,-1.328936462E0,1.347497864E0,1.512561297E1
1.599950742E1,-1.545685730E1,-1.953437805E0,1.079255676E0,1.561714281E1
1.600951742E1,-1.628628250E1,-2.892734528E0,5.625302124E-1,1.655075077E1
1.601952742E1,-1.685539902E1,-3.710933075E0,2.305206299E-2,1.725908548E1
1.602953842E1,-1.712274307E1,-4.457131348E0,-3.713777161E-1,1.769723909E1
1.603954842E1,-1.716166214E1,-4.655169525E0,-5.595364380E-1,1.779062483E1
1.604955842E1,-1.657503204E1,-3.856430511E0,-4.561015320E-1,1.702385891E1
1.605956942E1,-1.571372314E1,-2.889291687E0,-1.746867371E-1,1.597809804E1
1.606957942E1,-1.532004181E1,-2.786904602E0,5.194198608E-2,1.557155150E1
1.607958942E1,-1.540147247E1,-3.406915283E0,2.095642090E-2,1.577380313E1
1.608960042E1,-1.522618698E1,-4.275109863E0,4.834945679E-2,1.581504575E1
1.609961042E1,-1.459345276E1,-4.890779572E0,3.382965088E-1,1.539490282E1
1.610962042E1,-1.390563309E1,-5.529201965E0,6.890171814E-1,1.498043559E1
1.611963142E1,-1.328472427E1,-6.237079926E0,1.012344818E0,1.471087717E1
1.612964142E1,-1.255753647E1,-6.650669861E0,1.144519958E0,1.425598322E1
1.613965142E1,-1.150732040E1,-6.771019592E0,1.100810852E0,1.339689941E1
1.614966242E1,-1.042656784E1,-6.548731842E0,1.063388672E0,1.235839800E1
1.615967242E1,-9.432035980E0,-6.050717468E0,1.069675598E0,1.125693966E1
1.616968242E1,-8.671617279E0,-5.469176788E0,1.070873108E0,1.030803619E1
1.617969342E1,-8.355474701E0,-5.068160706E0,1.008153534E0,9.824285417E0
1.618970342E1,-8.399483185E0,-4.771627350E0,9.494755554E-1,9.706763063E0
1.619971342E1,-8.525521088E0,-4.404889984E0,9.213340759E-1,9.640353835E0
1.620972442E1,-8.665180664E0,-3.942800903E0,8.891510010E-1,9.561465599E0
1.621973442E1,-8.764124908E0,-3.546724548E0,8.315208435E-1,9.491078303E0
1.622974442E1,-8.834927673E0,-3.321143646E0,8.261320496E-1,9.474620640E0
1.623975542E1,-8.801247711E0,-3.126697998E0,6.969506836E-1,9.366106016E0
1.624976542E1,-8.682394867E0,-2.981949005E0,5.721102905E-1,9.198005799E0
1.625977542E1,-8.602311401E0,-2.878364410E0,5.004093933E-1,9.084885948E0
1.626978642E1,-8.843759308E0,-2.763253784E0,4.739144897E-1,9.277512873E0
1.627979642E1,-9.270372162E0,-2.691552887E0,6.728507996E-1,9.676620544E0
1.628980625E1,-9.588011627E0,-2.526296539E0,8.951385498E-1,9.955572017E0
1.629981725E1,-9.714648285E0,-2.399809570E0,1.026714935E0,1.005920578E1
1.630982725E1,-9.793234863E0,-2.406695251E0,1.071471863E0,1.014138467E1
1.631983725E1,-9.910740509E0,-2.487227783E0,1.087189178E0,1.027575106E1
1.632984825E1,-9.944270782E0,-2.584974518E0,1.123563538E0,1.033600550E1
1.633985825E1,-9.966574402E0,-2.664459229E0,1.098415833E0,1.037489593E1
1.634986825E1,-9.977501678E0,-2.869682465E0,1.100511475E0,1.044015051E1
1.635987925E1,-9.868228912E0,-3.075354767E0,9.633966064E-1,1.038113105E1
1.636988925E1,-9.710606689E0,-3.226989441E0,8.945397949E-1,1.027178390E1
1.637989925E1,-9.619745636E0,-3.395389252E0,9.377998352E-1,1.024439568E1
1.638991025E1,-9.473649445E0,-3.589236145E0,9.885443115E-1,1.017889335E1
1.639992025E1,-9.375753021E0,-3.933669891E0,1.063987427E0,1.022304127E1
1.640993025E1,-9.158105621E0,-4.176165619E0,1.023122406E0,1.011721490E1
1.641994125E1,-8.907975769E0,-4.403243408E0,9.737251282E-1,9.984424142E0
1.642995125E1,-8.757538605E0,-4.624782715E0,8.234376526E-1,9.937864315E0
1.643996125E1,-8.526718597E0,-4.826563110E0,5.264552307E-1,9.812124979E0
1.644997225E1,-8.163124695E0,-4.897515564E0,2.327659607E-1,9.522417943E0
1.645998225E1,-7.726782074E0,-4.916975098E0,-3.532653809E-2,9.158660016E0
