"Time (s)","Acceleration x (m/s^2)","Acceleration y (m/s^2)","Acceleration z (m/s^2)","Absolute acceleration (m/s^2)"
-2.213749103E-4,-3.543581085E0,6.378835144E0,7.232958984E0,1.027434671E1
9.788624942E-3,-3.379971313E0,6.259982300E0,7.412136383E0,1.027381868E1
1.979862479E-2,-3.160976715E0,6.317163391E0,7.283853149E0,1.014656808E1
2.980862511E-2,-2.772534485E0,6.369105377E0,6.841223602E0,9.749604666E0
3.981862497E-2,-2.805166626E0,6.465953979E0,6.470145264E0,9.567669538E0
4.982862482E-2,-2.815944214E0,6.560407562E0,5.999374237E0,9.325287150E0
5.983862514E-2,-3.006198578E0,6.632108459E0,5.874833221E0,9.356054611E0
6.984762475E-2,-3.267106018E0,6.689888306E0,6.042484589E0,9.588545629E0
7.985762507E-2,-3.551963654E0,6.674170990E0,6.288273468E0,9.833788050E0
8.986762492E-2,-3.871399384E0,6.516997833E0,6.722670135E0,1.013179588E1
9.987712512E-2,-4.541256409E0,6.208040314E0,7.408693542E0,1.067949036E1
1.098871250E-1,-5.204826508E0,6.237678680E0,8.162525940E0,1.151632250E1
1.198971248E-1,-6.029611359E0,6.460415497E0,7.801476746E0,1.178796933E1
1.299071251E-1,-5.631439362E0,6.508615265E0,6.988666992E0,1.108677808E1
1.399171250E-1,-5.287454681E0,6.500831451E0,7.049739990E0,1.095065388E1
1.499271248E-1,-5.022206268E0,6.115083618E0,7.169341278E0,1.067783957E1
1.599371247E-1,-4.631967773E0,5.707481232E0,6.714736633E0,9.955810139E0
1.699471250E-1,-4.417463837E0,5.563330994E0,6.780899048E0,9.820653257E0
1.799571249E-1,-4.093836823E0,5.084327087E0,7.063661041E0,9.617961799E0
1.899671247E-1,-4.342170410E0,4.798122253E0,7.789801025E0,1.012706379E1
1.999771250E-1,-4.337380371E0,4.770429840E0,8.139024811E0,1.038333252E1
2.099871249E-1,-4.420008545E0,4.866230621E0,8.357121277E0,1.063288070E1
2.199961250E-1,-4.440216522E0,4.631668396E0,8.073461151E0,1.031254817E1
2.300061248E-1,-4.216431885E0,4.407883759E0,7.063361664E0,9.332674593E0
2.400161251E-1,-4.678970032E0,4.026027832E0,6.415059814E0,8.902508247E0
2.500261250E-1,-4.548142090E0,3.906426544E0,6.432723083E0,8.793502777E0
2.600361248E-1,-4.259542236E0,3.601959686E0,6.166426849E0,8.315204972E0
2.700461247E-1,-4.120032349E0,3.313659210E0,5.340594177E0,7.515114775E0
2.800561250E-1,-4.202810211E0,3.274740143E0,5.046605530E0,7.338648653E0
2.900661249E-1,-4.726421356E0,3.565435638E0,5.018613739E0,7.761306204E0
3.000761247E-1,-5.305417328E0,3.776496735E0,4.102967834E0,7.696994586E0
3.100861250E-1,-6.260880432E0,3.300336914E0,5.067711639E0,8.704742891E0
3.200961249E-1,-5.710924072E0,3.233126678E0,7.014413452E0,9.605714859E0
3.301061247E-1,-4.837191010E0,2.977608032E0,6.581813049E0,8.693953616E0
3.401161251E-1,-4.546645203E0,1.421294403E0,7.071744232E0,8.526524900E0
3.501261249E-1,-4.733606415E0,6.935078430E-1,6.638694763E0,8.182924354E0
3.601361248E-1,-5.085075531E0,9.508227539E-1,7.066505127E0,8.757713844E0
3.701451248E-1,-4.486170959E0,9.970765686E-1,8.561596069E0,9.717037553E0
3.801551247E-1,-4.167633362E0,4.120930481E-1,7.430099030E0,8.529089055E0
3.901651250E-1,-3.840563507E0,2.348616028E-1,7.236850891E0,8.196163666E0
4.001751249E-1,-3.598965912E0,5.084925842E-1,6.341712341E0,7.309475752E0
4.101851247E-1,-3.095562744E0,5.065466309E-1,4.477788391E0,5.467146154E0
4.201951250E-1,-2.829416199E0,2.415975952E-1,3.962410126E0,4.874900966E0
4.302051249E-1,-3.110082550E0,2.628533936E-1,3.420536957E0,4.630526800E0
4.402151247E-1,-2.901715851E0,2.323168945E-1,2.173629913E0,3.632986790E0
4.502251251E-1,-2.998863831E0,-2.992277527E-1,1.657054138E0,3.439265901E0
4.602351249E-1,-3.182082825E0,-1.379680939E0,1.570084991E0,3.807142955E0
4.702451248E-1,-3.235521698E0,-1.391057281E0,1.819466400E0,3.964101285E0
4.802551251E-1,-3.300935669E0,-1.976938934E0,1.481618958E0,4.123064222E0
4.902651249E-1,-3.373534698E0,-2.270029449E0,1.394649811E0,4.298699589E0
5.002751248E-1,-3.732188873E0,-2.574945374E0,1.306333466E0,4.718695221E0
5.102851251E-1,-3.715274048E0,-3.047512665E0,1.025816803E0,4.913541982E0
5.202951250E-1,-3.462449799E0,-3.315904541E0,9.919871521E-1,4.895694031E0
5.303041250E-1,-4.424798584E0,-3.129392395E0,1.236578522E0,5.558872701E0
5.403141249E-1,-5.934858398E0,-2.992726593E0,1.485361176E0,6.810672103E0
5.503241247E-1,-6.982829132E0,-3.076103210E0,1.726509705E0,7.823244174E0
5.603341251E-1,-7.044351196E0,-3.437002716E0,2.115101624E0,8.118468225E0
5.703441249E-1,-6.982080688E0,-4.108955383E0,2.278861084E0,8.415828713E0
5.803541248E-1,-7.287295990E0,-4.742737427E0,2.414179688E0,9.023663597E0
5.903641251E-1,-7.561376038E0,-5.051395569E0,2.425406342E0,9.411354881E0
6.003741249E-1,-7.777227173E0,-5.493276672E0,2.462978210E0,9.835019713E0
6.103841248E-1,-7.827971649E0,-5.847889252E0,2.466421051E0,1.007760793E1
6.203941251E-1,-8.584199066E0,-5.971232758E0,2.443818054E0,1.073854464E1
6.304041250E-1,-9.546547852E0,-5.946234741E0,2.344424744E0,1.148871668E1
6.404141248E-1,-1.050605255E1,-7.423063660E0,2.351310425E0,1.307699029E1
6.504241251E-1,-1.124656265E1,-7.819589081E0,2.816992035E0,1.398451247E1
6.604341250E-1,-1.258118729E1,-8.042924652E0,2.937192078E0,1.521847587E1
6.704441248E-1,-1.352317841E1,-7.839497681E0,2.491568756E0,1.582851834E1
6.804541247E-1,-1.422312286E1,-7.442822571E0,1.632056122E0,1.613556442E1
6.904641250E-1,-1.502515503E1,-6.755152588E0,6.390211487E-1,1.648622814E1
7.004741249E-1,-1.533052002E1,-6.085744629E0,-4.936734009E-1,1.650166189E1
7.104831249E-1,-1.568618042E1,-5.862259369E0,-1.119671631E0,1.678320606E1
7.204931248E-1,-1.566552338E1,-6.075416107E0,-1.332828369E0,1.685513972E1
7.305031251E-1,-1.634421204E1,-6.630611572E0,-1.512454834E0,1.770270591E1
7.405131250E-1,-1.689940750E1,-6.981931000E0,-1.423839111E0,1.834024679E1
7.505231248E-1,-1.775487854E1,-7.075636139E0,-1.541344757E0,1.917488155E1
7.605331251E-1,-1.901525757E1,-6.467600555E0,-1.677411804E0,2.015498915E1
7.705431250E-1,-1.971295670E1,-5.723497925E0,-2.323168945E0,2.065807842E1
7.805531248E-1,-1.988300308E1,-5.094056854E0,-3.025658112E0,2.074699578E1
7.905631247E-1,-1.984408401E1,-4.462520142E0,-3.976480865E0,2.072472331E1
8.005731250E-1,-1.910312485E1,-3.781286774E0,-4.933440857E0,2.008896083E1
8.105831249E-1,-1.873683655E1,-3.523672485E0,-5.688021698E0,1.989570060E1
8.205931247E-1,-1.899804337E1,-2.804418182E0,-6.416556702E0,2.024753350E1
8.306031250E-1,-1.915072586E1,-3.023412781E0,-5.679040375E0,2.020254502E1
8.406131249E-1,-1.767704041E1,-3.820954285E0,-4.764292603E0,1.870229754E1
8.506231247E-1,-1.684117859E1,-4.486919403E0,-4.619393921E0,1.803043378E1
8.606331251E-1,-1.585532867E1,-4.643344116E0,-4.593198395E0,1.714787344E1
8.706431249E-1,-1.495614853E1,-4.738995209E0,-5.006938019E0,1.646857258E1
8.806521250E-1,-1.438059540E1,-5.011578369E0,-5.235213318E0,1.610356793E1
8.906621248E-1,-1.373738297E1,-4.770130463E0,-5.192402344E0,1.544120712E1
9.006721247E-1,-1.298968781E1,-4.569098511E0,-5.008584595E0,1.465245952E1
9.106821250E-1,-1.245978973E1,-4.496050415E0,-5.043013000E0,1.417366606E1
9.206921249E-1,-1.199859879E1,-4.203259277E0,-5.320685577E0,1.378199755E1
9.307021247E-1,-1.127530289E1,-4.287234650E0,-5.358556824E0,1.319950633E1
9.407121250E-1,-9.940378876E0,-4.997956696E0,-5.654491425E0,1.248054392E1
9.507221249E-1,-6.630162506E0,-6.479276276E0,-5.771847382E0,1.092036163E1
9.607321247E-1,1.495540009E0,-1.025741959E1,-5.096152496E0,1.155084701E1
9.707421251E-1,7.326963501E0,-1.564142349E1,-2.715203705E0,1.748458905E1
9.807521249E-1,5.179678802E0,-1.607058105E1,2.763253784E-1,1.688694773E1
9.907621248E-1,-2.561024323E0,-1.038749908E1,1.164727936E0,1.076176445E1
1.000772125E0,-6.682104492E0,-5.433999939E0,7.225474548E-1,8.642971168E0
1.010782125E0,-7.948770447E0,-4.721631317E0,-4.068539429E-1,9.254311646E0
1.020792125E0,-8.338260498E0,-5.207071838E0,-2.040556641E0,1.004012234E1
1.030802125E0,-8.153993683E0,-5.807473297E0,-2.454296265E0,1.030717853E1
1.040812125E0,-8.415799255E0,-6.380182343E0,-1.958377533E0,1.074093322E1
1.050821125E0,-8.486452332E0,-6.903943176E0,-1.277593231E0,1.101437919E1
1.060831125E0,-8.626860352E0,-6.189029846E0,-5.257067871E-1,1.063029527E1
1.070841125E0,-8.926237793E0,-5.359754333E0,3.192860413E-1,1.041665163E1
1.080851125E0,-1.055664734E1,-4.254303131E0,1.475182343E0,1.147684892E1
1.090861125E0,-1.226699066E1,-3.207380219E0,2.105970612E0,1.285307201E1
1.100871667E0,-1.097382980E1,-3.472329254E0,1.737736359E0,1.164052141E1
1.110881667E0,-1.024634262E1,-3.433410187E0,1.695075073E0,1.093842411E1
1.120891667E0,-1.035576508E1,-3.421884155E0,8.511300659E-1,1.093963363E1
1.130901666E0,-1.064017365E1,-3.615431671E0,5.276527405E-1,1.125002483E1
1.140911667E0,-9.053323517E0,-4.159699860E0,7.701484680E-1,9.992942424E0
1.150921667E0,-8.011340332E0,-4.766837311E0,2.137554932E-1,9.324698562E0
1.160931666E0,-6.977290649E0,-4.259691925E0,-5.388793945E-1,8.192554614E0
1.170941667E0,-7.311994629E0,-3.875440979E0,-1.064436493E0,8.343700215E0
1.180951667E0,-9.405690765E0,-2.828518066E0,-1.113534393E0,9.884710015E0
1.190961666E0,-4.742438049E0,-4.961282959E0,2.230361938E-1,6.866934716E0
1.200971667E0,-4.344266052E0,-6.488556976E0,-1.294807434E-1,7.809659687E0
1.210981667E0,-4.844974823E0,-6.339017944E0,-2.495310974E-1,7.982430413E0
1.220991666E0,-5.473667450E0,-5.611680450E0,-9.279203796E-1,7.893860213E0
1.231001667E0,-6.690936127E0,-4.814887390E0,-1.213077393E0,8.332065986E0
1.241010666E0,-7.730224915E0,-3.939657440E0,-7.801776123E-1,8.711254507E0
1.251020667E0,-8.461604004E0,-3.371888123E0,-6.307882690E-1,9.130512892E0
1.261030667E0,-7.828271027E0,-3.968397675E0,2.243833923E-1,8.779541860E0
1.271040666E0,-8.098608856E0,-4.709955597E0,1.367256775E0,9.467868726E0
1.281050667E0,-7.808961182E0,-4.871320038E0,2.796334991E0,9.619205946E0
1.291060667E0,-7.548053741E0,-4.807552643E0,3.448828125E0,9.590625273E0
1.301070666E0,-7.551646271E0,-5.149741058E0,3.743265839E0,9.877207779E0
1.311080667E0,-7.746241608E0,-5.604495392E0,3.176244965E0,1.007487765E1
1.321090667E0,-7.989336090E0,-5.961053925E0,2.393073578E0,1.025136363E1
1.331100666E0,-8.480764160E0,-6.216422882E0,1.742975464E0,1.065857578E1
1.341110667E0,-8.622669067E0,-5.953270111E0,9.741741943E-1,1.052334843E1
1.351120667E0,-8.628955994E0,-5.641169128E0,1.184037781E-1,1.030998012E1
1.361130666E0,-8.494236145E0,-5.610482941E0,-5.520520020E-1,1.019481868E1
1.371140667E0,-9.116043091E0,-5.575755157E0,8.936416626E-2,1.068640600E1
1.381150667E0,-9.351653137E0,-5.159171448E0,6.939569092E-1,1.070289880E1
1.391160666E0,-9.454788666E0,-4.722828827E0,-6.556365967E-2,1.056893748E1
1.401170667E0,-9.840686188E0,-4.464166718E0,7.304809570E-2,1.080616607E1
1.411180667E0,-9.901310120E0,-4.430337067E0,4.308041382E-1,1.085584731E1
1.421189667E0,-1.001193008E1,-4.172423401E0,6.773414612E-1,1.086768846E1
1.431199667E0,-9.999056854E0,-3.958967285E0,2.975811768E-1,1.075839739E1
1.441209666E0,-1.008078690E1,-4.058959351E0,8.189469910E-1,1.089807734E1
1.451219667E0,-1.044303360E1,-4.713697815E0,1.692530365E0,1.158190644E1
1.461229667E0,-1.152767807E1,-5.234913940E0,2.961441650E0,1.300237756E1
1.471239666E0,-1.313967590E1,-5.457650757E0,7.170389099E0,1.593271836E1
1.481249667E0,-9.222471771E0,-3.961811371E0,2.046693878E0,1.024396851E1
1.491259667E0,-8.548423462E0,-3.673211517E0,-1.300794983E0,9.394684355E0
1.501269666E0,-9.876461792E0,-3.181184692E0,1.153351593E0,1.044005045E1
1.511279667E0,-1.155776550E1,-2.484084320E0,3.301235046E0,1.227398758E1
1.521289667E0,-1.097966766E1,-2.424508209E0,3.498973846E0,1.177599932E1
1.531299667E0,-1.057416092E1,-3.011587372E0,2.653082886E0,1.131023370E1
1.541309666E0,-1.114193024E1,-2.863694916E0,2.029180298E0,1.168164931E1
1.551319667E0,-1.041908340E1,-2.581980743E0,1.265169067E0,1.080854182E1
1.561329667E0,-8.818461914E0,-3.301384735E0,1.103205872E0,9.480584101E0
1.571339666E0,-8.656049652E0,-3.548371124E0,2.580483856E0,9.704485053E0
1.581349667E0,-8.527467041E0,-2.963088226E0,3.354374542E0,9.630649747E0
1.591359667E0,-8.206983490E0,-3.047961731E0,3.299438782E0,9.355797400E0
1.601368667E0,-7.759414215E0,-3.282673645E0,2.690954132E0,8.844528781E0
1.611378666E0,-6.621181183E0,-2.340981903E0,2.388732605E0,7.417970072E0
1.621388667E0,-6.221811676E0,-2.163451080E0,1.233435059E0,6.701703004E0
1.631398667E0,-5.930667114E0,-2.735561371E0,-3.367996216E-1,6.539842691E0
1.641408667E0,-5.169050903E0,-3.352428589E0,-5.783972168E-1,6.188085974E0
1.651418666E0,-4.696932678E0,-3.752247162E0,-4.326004028E-1,6.027244682E0
1.661428667E0,-4.580325165E0,-3.643124084E0,-4.757107544E-1,5.871799761E0
1.671438667E0,-4.375101929E0,-3.591182098E0,-3.724255371E-1,5.672460360E0
1.681448666E0,-4.251908112E0,-3.707490234E0,-1.823208618E-1,5.644240190E0
1.691458667E0,-4.678820343E0,-4.200115814E0,-6.047424316E-2,6.287765087E0
1.701468667E0,-7.309449921E0,-5.670059052E0,-2.182461548E-1,9.253391766E0
1.711478666E0,-9.573791199E0,-6.858138428E0,1.257385254E-2,1.177674398E1
1.721488667E0,-1.035995636E1,-7.400161285E0,6.855743408E-1,1.274994490E1
1.731498667E0,-1.054826477E1,-7.952362976E0,1.088686066E0,1.325485586E1
1.741508666E0,-8.572523346E0,-6.789431305E0,1.472338257E0,1.103414310E1
1.751518667E0,-5.572761383E0,-4.677622833E0,2.614762573E0,7.731287611E0
1.761528667E0,-2.964884491E0,-3.196602631E0,1.285676422E0,4.545522224E0
1.771538666E0,-1.378034363E0,-2.864742737E0,8.431965637E-1,3.288876723E0
1.781548667E0,-7.756869507E-1,-2.586920471E0,4.224215698E-1,2.733548564E0
1.791557666E0,-2.894979858E-1,-2.585423584E0,-9.580078125E-3,2.601598734E0
1.801567667E0,-9.669891357E-2,-3.014581146E0,-1.895059204E-1,3.022079195E0
1.811577667E0,1.898052979E-1,-3.479065247E0,-3.724255371E-1,3.504086446E0
1.821587666E0,6.930587769E-1,-4.777914276E0,-9.708810425E-1,4.924571585E0
1.831597667E0,5.192701721E-1,-5.154381409E0,-8.872050476E-1,5.255894026E0
1.841607667E0,7.670050049E-1,-8.027207336E0,-2.001787262E0,8.308520117E0
1.851617666E0,8.849597168E-1,-1.163889679E1,-4.067192230E0,1.236078981E1
1.861627667E0,8.403524780E-1,-1.507769577E1,-4.930147705E0,1.588551096E1
1.871637667E0,7.481442261E-1,-1.852697296E1,-6.688990173E0,1.971169796E1
1.881647666E0,1.438358917E0,-2.052367081E1,-8.285420380E0,2.217967833E1
1.891657667E0,1.365460510E0,-2.103096588E1,-6.303691406E0,2.199778474E1
1.901667667E0,9.987231445E-1,-2.011936157E1,-2.826422424E0,2.034145574E1
1.911677666E0,7.734416199E-1,-1.837908051E1,-1.090632019E0,1.842765016E1
1.921687667E0,1.558259583E-1,-1.621787476E1,-4.595443726E-2,1.621868845E1
1.931697667E0,-9.300160217E-1,-1.350012634E1,8.244854736E-1,1.355721643E1
1.941707666E0,-1.757944336E0,-1.069091812E1,1.288819885E0,1.091087326E1
1.951717666E0,-1.855242004E0,-8.200247498E0,1.199904785E0,8.492688232E0
1.961727667E0,-1.978585510E0,-6.276448059E0,1.090632019E0,6.670688050E0
1.971737667E0,-1.878593445E0,-5.009033661E0,7.054829407E-1,5.396039078E0
1.981747666E0,-1.446292419E0,-4.093537445E0,-5.987548828E-1,4.382615428E0
1.991756666E0,-1.098715210E0,-3.587140503E0,-1.970352631E0,4.237574966E0
2.001766667E0,-1.094823303E0,-3.739224243E0,-2.922223206E0,4.870300244E0
2.011776667E0,-1.441203003E0,-4.597539368E0,-3.383264465E0,5.887351932E0
2.021786666E0,-1.952090607E0,-5.962550812E0,-4.132007446E0,7.512400113E0
2.031796667E0,-2.600991211E0,-7.660919037E0,-5.308710480E0,9.676633853E0
2.041806667E0,-4.303401031E0,-1.059227325E1,-1.095437027E1,1.583394269E1
2.051816666E0,-6.797664185E0,-1.378722931E1,-1.900612656E1,2.444440175E1
2.061826666E0,-6.390810242E0,-1.328457458E1,-1.178184952E1,1.887152234E1
2.071836667E0,-6.167025604E0,-1.253658005E1,-6.158493347E0,1.526843425E1
2.081846667E0,-6.767427063E0,-1.257220596E1,-4.739743652E0,1.504405536E1
2.091856666E0,-8.330177307E0,-1.351479584E1,-3.493285675E0,1.625560227E1
2.101866875E0,-9.661658478E0,-1.496872238E1,-2.118394775E0,1.794151306E1
2.111876875E0,-9.419761505E0,-1.691272980E1,-5.167254639E-1,1.936593249E1
2.121886875E0,-7.898175659E0,-2.011681686E1,3.158432007E-2,2.161176756E1
2.131896875E0,-6.081403656E0,-2.286869431E1,-1.044827271E-1,2.366371835E1
2.141906875E0,-4.657414856E0,-2.268427780E1,9.033714294E-1,2.317507395E1
2.151916875E0,-3.261567535E0,-1.856170074E1,3.244503021E0,1.912331972E1
2.161926875E0,-1.903890839E0,-1.216190918E1,4.453538818E0,1.309086870E1
2.171936875E0,-4.421804810E-1,-6.918313293E0,3.141367493E0,7.610963942E0
2.181945875E0,6.824308777E-1,-3.899091797E0,9.083111572E-1,4.061238469E0
2.191955875E0,2.549647980E0,-2.258802795E0,-3.434158630E0,4.836976368E0
2.201965875E0,7.010970612E0,-2.352358246E0,-1.254166946E1,1.455955944E1
2.211975875E0,5.977369995E0,-3.375031586E0,-7.863447876E0,1.043808425E1
2.221985875E0,2.118095398E0,-5.011278992E0,-5.635780334E-1,5.469631198E0
2.231995875E0,1.617386627E0,-6.126909027E0,6.186634827E-1,6.366922195E0
2.242005875E0,1.682351532E0,-7.493417358E0,1.807491302E0,7.889780427E0
2.252015875E0,2.064057770E0,-9.911938019E0,3.328927460E0,1.065779564E1
2.262025875E0,2.145937500E0,-1.277623169E1,4.659061432E0,1.376749786E1
2.272035875E0,1.877994690E0,-1.510853165E1,4.976251831E0,1.601741786E1
2.282045875E0,1.734892273E0,-1.626397888E1,5.087171173E0,1.712910304E1
2.292055875E0,1.015787659E0,-1.587478821E1,4.793182526E0,1.661370892E1
2.302065875E0,-1.710942078E-1,-1.429392563E1,3.828887787E0,1.479885012E1
2.312075875E0,-8.358618164E-1,-1.258642639E1,3.088976440E0,1.298686143E1
2.322085875E0,-9.089099121E-1,-1.107097778E1,2.684517517E0,1.142800510E1
2.332095875E0,-9.238787842E-1,-9.733059998E0,2.160307617E0,1.001263891E1
2.342105875E0,-9.867480469E-1,-8.816665649E0,1.604962463E0,9.015717908E0
2.352115875E0,-8.062234497E-1,-8.201744385E0,1.248254242E0,8.335271193E0
2.362125875E0,-5.352868652E-1,-7.900420990E0,1.027912445E0,7.984972626E0
2.372134875E0,-1.628613281E-1,-7.800578613E0,1.103654938E0,7.879949539E0
2.382144875E0,7.664062500E-2,-7.998766479E0,1.226699066E0,8.092646636E0
2.392154875E0,1.332229614E-1,-8.584648132E0,7.797285461E-1,8.621015516E0
2.402164875E0,2.200424194E-2,-9.291777649E0,2.140548706E-1,9.294268963E0
2.412174875E0,-1.131646729E-1,-9.778265991E0,-8.262817383E-2,9.779269883E0
2.422184875E0,-2.026785278E-1,-9.916877747E0,-2.305206299E-1,9.921627013E0
2.432194875E0,-1.017883301E-1,-9.266629944E0,-2.171983337E-1,9.269733896E0
2.442204875E0,-1.496887207E-2,-8.170010376E0,-5.852828979E-2,8.170233728E0
2.452214875E0,-1.062789917E-2,-7.793842621E0,-1.616638184E-1,7.795526341E0
2.462224875E0,7.993377686E-2,-7.849676514E0,-3.790118408E-1,7.859227745E0
2.472234875E0,3.424877930E-1,-8.354875946E0,-1.097218323E0,8.433572079E0
2.482244875E0,5.730084229E-1,-8.821006622E0,-2.234403534E0,9.117623355E0
2.492254875E0,8.431965637E-1,-9.248816986E0,-3.112327881E0,9.794803772E0
2.502264875E0,7.358697510E-1,-9.448052673E0,-2.502496033E0,9.801514679E0
2.512274875E0,6.032455444E-2,-9.398505707E0,-1.048719177E0,9.457027043E0
2.522284875E0,-5.685177612E-1,-9.201365662E0,2.769241333E-2,9.218953810E0
2.532294875E0,-7.333250427E-1,-8.854686584E0,4.025129700E-1,8.894113605E0
2.542304875E0,-7.219487000E-1,-8.690028992E0,6.313870239E-1,8.742794941E0
2.552314875E0,-7.963439941E-1,-8.525371399E0,6.947053528E-1,8.590619115E0
2.562324875E0,-1.000070343E0,-9.201665039E0,9.160949707E-2,9.256304472E0
2.572334875E0,-1.278191986E0,-9.302854614E0,-7.247927856E-1,9.418184714E0
2.582343875E0,-1.707349548E0,-9.461973724E0,-1.263372803E-1,9.615609723E0
2.592353875E0,-2.172731781E0,-1.024544449E1,8.563691711E-1,1.050824744E1
2.602363875E0,-2.719245300E0,-1.068717590E1,1.334924011E0,1.110819724E1
2.612373875E0,-3.472029877E0,-1.095451996E1,1.510508881E0,1.159043295E1
2.622383875E0,-4.252506866E0,-1.177511353E1,1.779798889E0,1.264534686E1
2.632393875E0,-5.290448456E0,-1.174367889E1,1.039139099E0,1.292217663E1
2.642403875E0,-6.433022461E0,-1.152318741E1,-2.544708252E-3,1.319725852E1
2.652413875E0,-7.177873535E0,-1.132140701E1,2.704875183E-1,1.340780701E1
2.662423875E0,-7.584577789E0,-1.159024796E1,1.025667114E0,1.388926423E1
2.672433875E0,-7.793393555E0,-1.133727402E1,6.403683472E-1,1.377246662E1
2.682443875E0,-8.323141937E0,-1.087862778E1,-1.078357544E0,1.373979945E1
2.692453875E0,-8.770262146E0,-1.161135406E1,-2.944077759E0,1.484616567E1
2.702463875E0,-8.865763550E0,-1.284389099E1,-5.288203125E0,1.647823994E1
2.712473875E0,-9.029972076E0,-1.365475479E1,-9.295669556E0,1.882557294E1
2.722483875E0,-8.092022552E0,-1.380489258E1,-6.339616699E0,1.721181652E1
2.732493875E0,-6.160588989E0,-1.262669266E1,3.360511780E-1,1.405343924E1
2.742503875E0,-5.127138062E0,-1.160656403E1,1.844464417E0,1.282193130E1
2.752513875E0,-4.644990692E0,-1.123892853E1,1.737736359E0,1.228450978E1
2.762523875E0,-4.273762665E0,-1.153171967E1,1.736838226E0,1.242023401E1
2.772533875E0,-4.472998352E0,-1.247371078E1,1.947899323E0,1.339386004E1
2.782542875E0,-4.831652527E0,-1.389889709E1,1.930385742E0,1.484084215E1
2.792552875E0,-4.360582123E0,-1.507709702E1,2.177222443E0,1.584530935E1
2.802562875E0,-3.868704987E0,-1.629241974E1,1.789528656E0,1.684079072E1
2.812572875E0,-3.603456573E0,-1.743379623E1,1.238225098E0,1.784531736E1
2.822582875E0,-2.950065308E0,-1.798749481E1,9.455836487E-1,1.825231447E1
2.832592875E0,-2.221979370E0,-1.773990967E1,7.426057434E-1,1.789393894E1
2.842602875E0,-1.480870514E0,-1.672666672E1,2.528242493E-1,1.679399527E1
2.852612875E0,-1.258882141E-1,-1.550520676E1,-2.132615204E0,1.565168783E1
2.862622875E0,1.743125153E0,-1.385024826E1,-6.099665680E0,1.523396808E1
2.872632875E0,2.448608093E0,-1.193992081E1,-7.536677399E0,1.433034880E1
2.882642875E0,1.519041138E0,-1.074001602E1,-3.873045959E0,1.151763496E1
2.892652875E0,6.087840271E-1,-1.017284546E1,5.197192383E-1,1.020428884E1
2.902662875E0,1.660047913E-1,-9.768087158E0,3.260669403E0,1.029927421E1
2.912672875E0,2.570155334E-1,-9.061706085E0,4.779411163E0,1.024808983E1
2.922682875E0,4.586462402E-1,-8.217910767E0,5.816005554E0,1.007821087E1
2.932692875E0,4.490661621E-3,-7.404801636E0,5.445226593E0,9.191387277E0
2.942702875E0,-4.957690430E-1,-6.716383209E0,4.877008209E0,8.315094674E0
2.952712875E0,-9.210346985E-1,-6.096372528E0,4.192631378E0,7.456019098E0
2.962722875E0,-1.319955139E0,-5.660029907E0,2.945125580E0,6.515518767E0
2.972732875E0,-1.839075623E0,-5.377267914E0,2.176473999E0,6.085577083E0
2.982741875E0,-2.312690735E0,-5.171595612E0,1.797312469E0,5.943422559E0
2.992751875E0,-2.497256927E0,-4.937033386E0,1.791624298E0,5.815540254E0
3.002761875E0,-2.365381165E0,-4.700076141E0,2.116598511E0,5.671484201E0
3.012771875E0,-1.176852722E0,-4.491260376E0,2.636317749E0,5.339154743E0
3.022781875E0,1.462458801E-1,-4.506528625E0,3.030597839E0,5.432744369E0
3.032791875E0,6.792874146E-1,-4.586163025E0,3.107537842E0,5.581318314E0
3.042801875E0,1.209484863E0,-4.615502014E0,3.003204803E0,5.637814432E0
3.052811875E0,1.586850128E0,-4.621339874E0,2.883154449E0,5.673398906E0
3.062821875E0,1.863774261E0,-4.679269409E0,2.564616852E0,5.652121398E0
3.072831875E0,2.210303650E0,-4.645739136E0,1.898951111E0,5.484008540E0
3.082841875E0,2.420765991E0,-4.555626526E0,8.843609619E-1,5.234112660E0
3.092851875E0,2.260748749E0,-4.580474854E0,-7.005432129E-2,5.108487290E0
3.102861500E0,1.989363098E0,-4.914580078E0,-8.318202209E-1,5.366804241E0
3.112871500E0,1.489253082E0,-5.742358704E0,-1.580862579E0,6.139355399E0
3.122881500E0,6.770420837E-1,-6.976542206E0,-3.040028229E0,7.640176619E0
3.132891500E0,-1.138981476E0,-8.444838867E0,-6.499484253E0,1.071708346E1
3.142901500E0,-4.661905518E0,-1.047102539E1,-1.446801361E1,1.845803764E1
3.152911500E0,-9.195228424E0,-1.288340881E1,-1.855855728E1,2.439168909E1
3.162921500E0,-1.152663025E1,-1.437400909E1,-1.122964783E1,2.157731060E1
3.172931500E0,-1.202000427E1,-1.547137711E1,-5.110522614E0,2.024750487E1
3.182941500E0,-1.276500504E1,-1.588137451E1,-2.724334717E0,2.055688229E1
3.192950500E0,-1.349219284E1,-1.530806671E1,-2.127825165E0,2.051594049E1
3.202960500E0,-1.342887451E1,-1.364622253E1,-3.278332672E0,1.942425096E1
3.212970500E0,-1.283565811E1,-1.159997772E1,-5.221891022E0,1.807157293E1
3.222980500E0,-1.010803024E1,-1.136077515E1,-5.101391602E0,1.603944150E1
3.232990500E0,-5.993686066E0,-1.455618027E1,-4.074976044E0,1.626075295E1
3.243000500E0,-4.580774231E0,-1.842817841E1,-3.962859192E0,1.939807993E1
3.253010500E0,-5.125042419E0,-1.959590012E1,-3.738176422E0,2.059707077E1
3.263020500E0,-7.377109222E0,-1.698323318E1,-8.937913513E-1,1.853782115E1
3.273030500E0,-6.959627380E0,-1.207419159E1,5.206473083E0,1.487715960E1
3.283040500E0,-2.660567322E0,-7.786358185E0,7.648494873E0,1.123412062E1
3.293050500E0,1.261127472E0,-4.787943420E0,5.025948486E0,7.055140175E0
3.303060500E0,2.639910278E0,-2.675685883E0,3.316353607E0,5.012646254E0
3.313070500E0,2.871927795E0,-1.541793823E0,2.688110046E0,4.225048293E0
3.323080500E0,3.234324188E0,-1.337169342E0,2.977158966E0,4.594817767E0
3.333090500E0,3.710783386E0,-1.926493835E0,4.048930206E0,5.820234330E0
3.343100500E0,3.375630341E0,-3.847748566E0,3.316203918E0,6.098955456E0
3.353110500E0,3.682192841E0,-6.521937561E0,3.160377960E0,8.129096045E0
3.363120500E0,4.036356354E0,-9.809251556E0,3.548969879E0,1.118520344E1
3.373130500E0,4.491559753E0,-1.288715103E1,3.758384399E0,1.415550155E1
3.383140500E0,5.055437164E0,-1.533635788E1,3.568429413E0,1.653768443E1
3.393149500E0,5.429958344E0,-1.695224762E1,3.153941345E0,1.807790068E1
3.403159500E0,5.163063354E0,-1.700568649E1,2.778821411E0,1.798811954E1
3.413169500E0,3.839216309E0,-1.550745209E1,2.398612061E0,1.615468947E1
3.423179500E0,2.233804779E0,-1.341210938E1,2.069596252E0,1.375346467E1
3.433189500E0,1.167272644E0,-1.085542603E1,1.581910400E0,1.103200980E1
3.443199500E0,9.651928711E-1,-8.949140167E0,7.095245361E-1,9.028960742E0
3.453209500E0,1.124012604E0,-8.316106567E0,-1.469943237E-1,8.393011385E0
3.463219500E0,1.274449768E0,-8.362510071E0,-9.098080444E-1,8.507852113E0
3.473229500E0,1.137634277E0,-8.536897430E0,-1.625918884E0,8.764498942E0
3.483239500E0,8.181985474E-1,-8.734187164E0,-2.042652283E0,9.007102899E0
3.493249500E0,3.990701294E-1,-8.902437286E0,-1.987716522E0,9.130370397E0
3.503259500E0,-5.493576050E-2,-8.943601685E0,-1.557810516E0,9.078425119E0
3.513269500E0,-3.282673645E-1,-8.962761841E0,-8.640032959E-1,9.010291947E0
3.523279500E0,-4.700225830E-1,-8.841813354E0,-5.763015747E-2,8.854485070E0
3.533289500E0,-5.418731689E-1,-8.550818481E0,7.967930603E-1,8.604940582E0
3.543299500E0,-8.666976929E-1,-8.376431122E0,8.779243469E-1,8.466788907E0
3.553309500E0,-1.120420074E0,-8.171806641E0,7.990383911E-1,8.286870776E0
3.563319500E0,-1.384770355E0,-8.105943604E0,9.165440369E-1,8.274295354E0
3.573329500E0,-1.550475769E0,-8.180189209E0,1.380878448E0,8.439567281E0
3.583339500E0,-1.762584686E0,-8.421188049E0,1.941612396E0,8.820032406E0
3.593349500E0,-2.280357971E0,-8.823401642E0,1.854343872E0,9.300055925E0
3.603359500E0,-2.870281219E0,-9.263486481E0,1.389560394E0,9.797018636E0
3.613368500E0,-3.350632324E0,-9.699529724E0,1.134191437E0,1.032443723E1
3.623378500E0,-3.761827240E0,-1.014036301E1,8.487350464E-1,1.084890120E1
3.633388500E0,-4.173770599E0,-1.049048492E1,5.462141418E-1,1.130349436E1
3.643398500E0,-4.752916260E0,-1.069106781E1,-5.956114197E-1,1.171511404E1
3.653408500E0,-5.707780609E0,-1.081800385E1,-3.100951538E0,1.261839400E1
3.663418500E0,-6.316564636E0,-1.077399536E1,-4.892725525E0,1.341330414E1
3.673428500E0,-6.237379303E0,-1.026580215E1,-4.782704315E0,1.292926351E1
3.683438500E0,-5.821244659E0,-9.765392761E0,-2.604284363E0,1.166327922E1
3.693448500E0,-5.509293365E0,-9.558672638E0,1.528321838E-1,1.103376154E1
3.703458500E0,-5.375621338E0,-9.348659363E0,1.566642151E0,1.089720626E1
3.713468500E0,-5.529351654E0,-9.058562622E0,2.138602753E0,1.082612157E1
3.723478500E0,-5.825435944E0,-8.824599152E0,2.945874023E0,1.097667654E1
3.733488500E0,-6.149062958E0,-8.830736389E0,2.909948730E0,1.114722755E1
3.743498500E0,-6.666087799E0,-8.869505768E0,1.998643799E0,1.127383857E1
3.753508500E0,-7.483837280E0,-9.483079834E0,2.149679718E0,1.227019749E1
3.763518500E0,-8.138276367E0,-1.008303223E1,2.074535980E0,1.312260571E1
3.773528500E0,-8.331823883E0,-1.022344025E1,1.429826660E0,1.326583672E1
3.783538500E0,-7.931406555E0,-1.010009674E1,-2.874023438E-2,1.284211782E1
3.793548500E0,-7.399412842E0,-1.014620087E1,-1.962868195E0,1.271021455E1
3.803558500E0,-6.932384033E0,-1.051967422E1,-4.541256409E0,1.339195669E1
3.813568500E0,-6.024072876E0,-1.104702759E1,-1.083776276E1,1.660672677E1
3.823577500E0,-6.303691406E0,-1.207434128E1,-1.187765030E1,1.807221124E1
3.833587500E0,-7.048692169E0,-1.199156342E1,-1.603166199E-1,1.391069214E1
3.843597500E0,-6.346352692E0,-1.110944778E1,4.077071686E0,1.342827376E1
3.853607500E0,-5.418132935E0,-1.112845825E1,2.464475098E0,1.262031636E1
3.863617500E0,-5.232967987E0,-1.195608719E1,1.318009186E0,1.311751207E1
3.873627500E0,-5.042414246E0,-1.309701462E1,1.305585022E0,1.409476093E1
3.883637500E0,-4.621938629E0,-1.412118484E1,1.905836792E0,1.498006649E1
3.893647500E0,-4.111949158E0,-1.521885223E1,2.333347778E0,1.593631391E1
3.903657500E0,-3.600612488E0,-1.618434448E1,2.137554932E0,1.671725329E1
3.913667500E0,-3.291056213E0,-1.680944458E1,1.748963013E0,1.721764646E1
3.923677500E0,-2.809507599E0,-1.706870544E1,1.388362885E0,1.735400789E1
3.933687500E0,-2.110610962E0,-1.673250458E1,1.235081635E0,1.691025768E1
3.943697500E0,-1.478924561E0,-1.583332443E1,1.104403381E0,1.594054852E1
3.953707500E0,-8.198451233E-1,-1.481603989E1,5.908213806E-1,1.485046309E1
3.963717500E0,1.990859985E-1,-1.371717499E1,-6.828799438E-1,1.373560519E1
3.973727500E0,1.464255066E0,-1.237701187E1,-2.835852814E0,1.278188276E1
3.983737500E0,2.281555481E0,-1.073896820E1,-4.702770538E0,1.194349129E1
3.993747500E0,1.823507996E0,-9.360634460E0,-3.784130859E0,1.025993690E1
4.003757500E0,1.347497864E0,-8.524024200E0,-9.351054382E-1,8.680389464E0
4.013767500E0,9.758207703E-1,-7.947572937E0,1.536405029E0,8.153323382E0
4.023777500E0,5.349874878E-1,-7.701334991E0,3.180735626E0,8.349482103E0
4.033786500E0,1.541793823E-1,-7.477550354E0,4.773722992E0,8.872765171E0
4.043796500E0,-1.263372803E-1,-7.101382599E0,5.151537323E0,8.774048821E0
4.053806500E0,-4.385879517E-1,-6.635700989E0,4.775369568E0,8.187126572E0
4.063816500E0,-5.780978394E-1,-6.265969849E0,4.209396515E0,7.570706326E0
4.073826500E0,-7.738906860E-1,-5.969885559E0,3.546425171E0,6.986814143E0
4.083836500E0,-1.042282562E0,-5.738317108E0,2.584974518E0,6.379398830E0
4.093846500E0,-1.497036896E0,-5.539081421E0,1.757794647E0,6.001031951E0
4.103856166E0,-1.990859985E0,-5.321134644E0,1.303938446E0,5.829086794E0
4.113866167E0,-2.065554657E0,-4.937183075E0,1.152154083E0,5.474463607E0
4.123876167E0,-1.101559296E0,-4.611909485E0,1.237626343E0,4.900495989E0
4.133886166E0,7.637118530E-1,-4.500391388E0,1.458417206E0,4.792051668E0
4.143896167E0,1.417851562E0,-4.597838745E0,1.425485687E0,5.018210201E0
4.153906167E0,1.800904999E0,-4.659061432E0,1.423090668E0,5.193775052E0
4.163916166E0,2.096540222E0,-4.696034546E0,1.339863739E0,5.314457282E0
4.173926167E0,2.166893921E0,-4.675676880E0,1.150956573E0,5.280348907E0
4.183936167E0,2.036515045E0,-4.639901276E0,7.619155884E-1,5.124118728E0
4.193946166E0,1.784439240E0,-4.641697540E0,9.834548950E-2,4.973856782E0
4.203956167E0,1.553170166E0,-5.034331055E0,-9.068142700E-1,5.345946020E0
4.213966167E0,1.134041748E0,-5.914800110E0,-1.781894531E0,6.280609775E0
4.223976166E0,4.224215698E-1,-7.301366730E0,-2.785108337E0,7.825932823E0
4.233986167E0,-9.400451660E-1,-9.074729004E0,-5.262905731E0,1.053245309E1
4.243996167E0,-3.851041718E0,-1.136661301E1,-1.190279800E1,1.690286999E1
4.254006166E0,-9.005722504E0,-1.414513504E1,-1.931403625E1,2.557772233E1
4.264015167E0,-1.251487518E1,-1.570174805E1,-1.444885345E1,2.473734745E1
4.274025166E0,-1.290526337E1,-1.638567581E1,-6.525829468E0,2.185457949E1
4.284035167E0,-1.340118210E1,-1.659598846E1,-2.583477631E0,2.148703961E1
4.294045167E0,-1.458581863E1,-1.556822571E1,-1.549427948E0,2.138963496E1
4.304055166E0,-1.454974365E1,-1.285826111E1,-2.712060242E0,1.960574380E1
4.314065167E0,-1.287502625E1,-9.187743988E0,-3.782933350E0,1.626319542E1
4.324075167E0,-9.373058624E0,-6.302793274E0,-3.365900574E0,1.178595425E1
4.334085166E0,-5.324577484E0,-6.920408936E0,-1.791324921E0,8.913586831E0
4.344095167E0,-3.136727142E0,-1.087264023E1,-4.454736328E-1,1.132483154E1
4.354105167E0,-2.554887085E0,-1.464614319E1,-2.475851440E-1,1.486937311E1
4.364115166E0,-2.779869232E0,-1.796638870E1,-1.825453949E0,1.827159211E1
4.374125167E0,-4.424648895E0,-2.014795212E1,-6.486461334E0,2.162386813E1
4.384135167E0,-5.096451874E0,-1.659673691E1,-4.937482452E0,1.805004794E1
4.394145167E0,1.945953369E-3,-1.052880524E1,2.455643463E0,1.081137958E1
4.404155166E0,3.056044922E0,-6.881789246E0,3.635340271E0,8.361467136E0
4.414165167E0,3.910019073E0,-4.622088318E0,3.449576569E0,6.967892657E0
4.424175167E0,3.942950592E0,-3.713926849E0,4.421056366E0,6.991841775E0
4.434185166E0,3.734434204E0,-3.623664551E0,4.570595398E0,6.925841891E0
4.444195167E0,3.033890991E0,-4.290527802E0,3.616329803E0,6.378946983E0
4.454205167E0,2.375559998E0,-5.722150726E0,3.155288544E0,6.952851216E0
4.464215166E0,2.221679993E0,-7.506739655E0,3.463048553E0,8.560356740E0
4.474224166E0,1.949695587E0,-9.390871582E0,3.648063812E0,1.026148876E1
4.484234167E0,1.748963013E0,-1.085976700E1,3.770658875E0,1.162803849E1
4.494244167E0,1.554068298E0,-1.190100174E1,3.630101166E0,1.253900336E1
4.504254167E0,1.180145874E0,-1.247865051E1,3.392245789E0,1.298525296E1
4.514264166E0,6.194119263E-1,-1.266067200E1,3.088078308E0,1.304655181E1
4.524274167E0,1.321751404E-1,-1.244736557E1,2.802322540E0,1.275959998E1
4.534284167E0,-1.490899658E-1,-1.162527512E1,2.457888794E0,1.188320103E1
4.544294166E0,-5.493576050E-2,-1.053973251E1,2.126777344E0,1.075230958E1
4.554304167E0,1.502874756E-1,-9.541458435E0,1.727707214E0,9.697782613E0
4.564314167E0,2.025288391E-1,-8.793164520E0,1.412462769E0,8.908187879E0
4.574324166E0,1.372645569E-1,-8.334817657E0,1.201251984E0,8.422056356E0
4.584334167E0,1.122665405E-2,-8.198750610E0,9.955796814E-1,8.258983988E0
4.594344167E0,7.200027466E-2,-8.602910156E0,1.410965881E0,8.718146128E0
4.604354166E0,2.918930054E-2,-9.329050140E0,8.993298340E-1,9.372343500E0
4.614364167E0,-3.269201660E-1,-9.678722992E0,-2.725831604E-1,9.688078093E0
4.624374167E0,-7.634124756E-1,-9.715995483E0,-9.822573853E-1,9.795315024E0
4.634384166E0,-1.180594940E0,-9.598938904E0,-1.528621216E0,9.791328578E0
4.644394167E0,-1.538500671E0,-9.417216797E0,-1.819616089E0,9.714008402E0
4.654404167E0,-1.751956787E0,-9.197773132E0,-1.624571686E0,9.503031955E0
4.664414166E0,-1.832639008E0,-8.937314758E0,-1.028361511E0,9.181050496E0
4.674424167E0,-1.920655975E0,-8.659941559E0,-4.064048767E-1,8.879677477E0
4.684434167E0,-1.950593719E0,-8.483009491E0,1.351689148E-1,8.705431438E0
4.694443167E0,-2.007026367E0,-8.365653534E0,5.269042969E-1,8.619161330E0
4.704453167E0,-2.070494385E0,-8.343649292E0,6.798861694E-1,8.623553543E0
4.714463166E0,-2.282603302E0,-8.678203583E0,1.055305481E-1,8.973997546E0
4.724473167E0,-2.635868683E0,-9.161997528E0,-9.129515076E-1,9.577237748E0
4.734483167E0,-2.610870667E0,-9.345515900E0,-1.252894592E-1,9.704174901E0
4.744493166E0,-2.723735962E0,-9.358089752E0,6.457571411E-1,9.767782946E0
4.754503167E0,-3.046015778E0,-9.333840179E0,6.911128235E-1,9.842582057E0
4.764513167E0,-3.145259399E0,-9.373507690E0,6.994953918E-1,9.911841247E0
4.774523166E0,-3.113076324E0,-9.736802216E0,4.887336731E-1,1.023403255E1
4.784533167E0,-3.113675079E0,-1.043554916E1,-4.197271729E-1,1.089824893E1
4.794543167E0,-3.576811981E0,-1.114043335E1,-1.449585571E0,1.179000159E1
4.804553166E0,-4.351600800E0,-1.097308136E1,-1.393601990E0,1.188642379E1
4.814563166E0,-4.772076416E0,-1.046279251E1,-1.109193420E-1,1.150021928E1
4.824573167E0,-4.901257782E0,-1.031355286E1,1.087039490E0,1.147054293E1
4.834583167E0,-5.072052612E0,-1.013721954E1,1.747915192E0,1.146926961E1
4.844593166E0,-5.271887054E0,-9.926308136E0,2.302062836E0,1.147274508E1
4.854603167E0,-5.721102905E0,-9.654024353E0,1.883383484E0,1.137885486E1
4.864613167E0,-6.388115845E0,-9.449250183E0,-8.786727905E-2,1.140631727E1
4.874623166E0,-7.056475983E0,-9.877958679E0,7.454498291E-2,1.213974785E1
4.884633167E0,-7.623945923E0,-1.072744217E1,2.736309814E-1,1.316348893E1
4.894643167E0,-7.508236542E0,-1.181822388E1,-3.039878540E0,1.432776651E1
4.904653166E0,-6.741381226E0,-1.293924271E1,-9.362580414E0,1.733574731E1
4.914662166E0,-6.771318970E0,-1.348021774E1,-8.746311951E0,1.743745978E1
4.924672166E0,-7.777227173E0,-1.319580917E1,-1.333127747E0,1.537504055E1
4.934682167E0,-7.853119354E0,-1.235785172E1,1.461261292E0,1.471472960E1
4.944692167E0,-7.523654480E0,-1.150447632E1,1.247356110E0,1.380268993E1
4.954702166E0,-7.024891663E0,-1.047746201E1,9.033714294E-1,1.264683331E1
4.964712167E0,-6.380332031E0,-9.805060272E0,1.079555054E0,1.174790547E1
4.974722167E0,-5.561834106E0,-9.603130188E0,1.711091766E0,1.122862160E1
4.984732166E0,-5.230123901E0,-1.017419266E1,2.070195007E0,1.162557954E1
4.994742167E0,-5.326224060E0,-1.150956573E1,2.249821472E0,1.288023535E1
5.004752167E0,-5.049599304E0,-1.290825714E1,2.354453888E0,1.405933884E1
5.014762166E0,-4.808001709E0,-1.438553513E1,2.191143494E0,1.532519530E1
5.024772167E0,-4.564158783E0,-1.577389801E1,1.805695038E0,1.651992550E1
5.034782167E0,-4.146227875E0,-1.665451675E1,1.356778564E0,1.721641606E1
5.044792166E0,-3.766766968E0,-1.687246353E1,9.737251282E-1,1.731521584E1
5.054802167E0,-3.167862396E0,-1.608839401E1,6.921606445E-1,1.641191215E1
5.064812167E0,-2.449057159E0,-1.470766525E1,7.268884277E-1,1.492788213E1
5.074822166E0,-1.749412079E0,-1.340881622E1,6.071374512E-1,1.353607813E1
5.084832167E0,-1.038540344E0,-1.209275299E1,-2.401007080E-1,1.213964123E1
5.094842167E0,-1.374142456E-1,-1.073477692E1,-2.509232025E0,1.102499721E1
5.104852417E0,3.137475586E-1,-9.417815552E0,-4.908592529E0,1.062487496E1
5.114862416E0,-1.845661926E-1,-8.659791870E0,-3.815864868E0,9.465034844E0
5.124872417E0,-6.123765564E-1,-8.516689453E0,-1.085243225E0,8.607366447E0
5.134881417E0,-4.058061218E-1,-8.672066345E0,2.297721863E0,8.980475436E0
5.144891417E0,-3.269201660E-1,-8.836723938E0,4.489913177E0,9.917352827E0
5.154901417E0,-6.330335999E-1,-8.706644440E0,4.836292877E0,9.979785455E0
5.164911416E0,-6.494993591E-1,-8.192613373E0,4.287234650E0,9.269365903E0
5.174921417E0,-7.578739929E-1,-7.607031097E0,3.318149872E0,8.333751477E0
5.184931417E0,-8.659492493E-1,-7.055278473E0,2.929857330E0,7.688360450E0
5.194941416E0,-9.119036865E-1,-6.521338806E0,2.731819153E0,7.128973562E0
5.204951417E0,-1.125210114E0,-6.004463654E0,2.691552887E0,6.675637686E0
5.214961417E0,-1.395697632E0,-5.478457489E0,2.535277863E0,6.195893977E0
5.224971416E0,-1.730102234E0,-4.938230896E0,2.533331909E0,5.813531516E0
5.234981417E0,-1.873653717E0,-4.522245941E0,2.256258087E0,5.389989532E0
5.244991417E0,-7.818241882E-1,-4.365072784E0,2.098486176E0,4.905991613E0
5.255001416E0,3.832031250E-1,-4.556824036E0,2.240091705E0,5.092101803E0
5.265011417E0,9.066645813E-1,-4.588857422E0,2.397564240E0,5.256231291E0
5.275021417E0,1.321152649E0,-4.585414581E0,2.556084595E0,5.413412940E0
5.285031416E0,1.592687988E0,-4.582869873E0,2.427202606E0,5.425003575E0
5.295041417E0,1.762434998E0,-4.582869873E0,2.209854584E0,5.384452681E0
5.305051417E0,1.821711731E0,-4.464316406E0,1.758692780E0,5.132421933E0
5.315061416E0,1.695673828E0,-4.348756714E0,1.074615326E0,4.789759157E0
5.325071417E0,1.464853821E0,-4.521198120E0,2.842588806E-1,4.761074697E0
5.335081417E0,1.094074860E0,-5.099445648E0,-4.670288086E-1,5.236359578E0
5.345091417E0,6.878196716E-1,-6.241271210E0,-1.681902466E0,6.500412150E0
5.355100417E0,1.026864624E-1,-7.960446167E0,-4.084406433E0,8.947716111E0
5.365110416E0,-1.894610138E0,-1.033450928E1,-1.003453308E1,1.452871239E1
5.375120417E0,-7.104526062E0,-1.308024948E1,-2.098710709E1,2.572986360E1
5.385130417E0,-1.198153427E1,-1.504970398E1,-1.842054428E1,2.663394835E1
5.395140416E0,-1.282443146E1,-1.641546387E1,-7.247927856E0,2.205597321E1
5.405150417E0,-1.344189743E1,-1.710298416E1,-2.823278961E0,2.193553231E1
5.415160417E0,-1.478535370E1,-1.635169647E1,-1.858984222E0,2.212330183E1
5.425170416E0,-1.498099686E1,-1.375669281E1,-2.479294281E0,2.048960136E1
5.435180417E0,-1.387853943E1,-1.007914032E1,-4.542154541E0,1.774356487E1
5.445190417E0,-1.144849274E1,-7.629634094E0,-5.036127319E0,1.465066144E1
5.455200417E0,-7.427105255E0,-9.750723267E0,-3.226690063E0,1.267477911E1
5.465210416E0,-4.797523499E0,-1.517170029E1,-2.036964111E0,1.604200561E1
5.475220417E0,-3.725752258E0,-1.934786591E1,-1.372944946E0,1.975110434E1
5.485230417E0,-4.299658813E0,-2.029030609E1,-2.136058044E-1,2.074196747E1
5.495240416E0,-4.680167542E0,-1.787986862E1,-1.160536652E0,1.851865318E1
5.505250417E0,-2.293829956E0,-1.174547516E1,-1.766476593E0,1.209703609E1
5.515260417E0,2.753823395E0,-7.321874084E0,-3.917353821E-1,7.832422359E0
5.525270416E0,4.982089691E0,-4.295916595E0,9.449848938E-1,6.645984768E0
5.535280417E0,5.597010956E0,-2.409539337E0,8.975335693E-1,6.159381297E0
5.545290417E0,5.841752014E0,-2.269879761E0,4.013753357E0,7.442354247E0
5.555300416E0,5.424569550E0,-3.249891815E0,5.506299591E0,8.384932128E0
5.565310417E0,4.042343903E0,-5.015619965E0,3.499871979E0,7.331172602E0
5.575320417E0,3.946842499E0,-7.113058319E0,3.711681519E0,8.941462076E0
5.585329417E0,4.196074219E0,-9.571545868E0,4.579726410E0,1.141032090E1
5.595339417E0,4.034709778E0,-1.176747940E1,4.759652252E0,1.331941230E1
5.605349416E0,3.542682953E0,-1.324221268E1,4.429139557E0,1.440569597E1
5.615359417E0,2.933599548E0,-1.375624374E1,3.954925690E0,1.461101247E1
5.625369417E0,1.956132202E0,-1.332858307E1,3.426524506E0,1.390031115E1
5.635379416E0,8.038284302E-1,-1.231848358E1,2.820734253E0,1.266284801E1
5.645389417E0,8.592132568E-2,-1.130733627E1,2.382894745E0,1.155601244E1
5.655399417E0,-2.794688416E-1,-1.042058029E1,2.035766602E0,1.062124955E1
5.665409416E0,-3.745211792E-1,-9.660760345E0,1.708696747E0,9.817851147E0
5.675419417E0,-2.454895020E-1,-9.103469238E0,1.404379578E0,9.214428863E0
5.685429417E0,-1.869612122E-1,-8.873397675E0,1.186732178E0,8.954355032E0
5.695439416E0,-1.502874756E-1,-8.872200165E0,1.689087524E0,9.032803483E0
5.705449417E0,-4.079017639E-1,-9.385931854E0,1.131796417E0,9.462719680E0
5.715459417E0,-1.050665131E0,-1.028107040E1,-4.670288086E-1,1.034516417E1
5.725469416E0,-1.686243439E0,-1.067041077E1,-1.722318420E0,1.093926248E1
5.735479417E0,-2.230960693E0,-1.066187851E1,-3.246299286E0,1.136623500E1
5.745489417E0,-2.518662415E0,-1.024170227E1,-4.182901611E0,1.134604740E1
5.755499416E0,-2.507735138E0,-9.528585205E0,-3.683989105E0,1.051924176E1
5.765509416E0,-2.211351471E0,-8.848100281E0,-1.858235779E0,9.307630962E0
5.775519417E0,-1.963616638E0,-8.417745209E0,1.576222229E-1,8.645176081E0
5.785529417E0,-1.747017059E0,-8.078999634E0,9.888436890E-1,8.324669094E0
5.795539416E0,-2.019899597E0,-8.045469360E0,1.037941589E0,8.359838177E0
5.805549417E0,-2.302062836E0,-8.146359558E0,1.037043457E0,8.528664988E0
5.815558417E0,-2.259551239E0,-8.115373993E0,1.216520233E0,8.511450424E0
5.825568417E0,-2.225422211E0,-8.001311188E0,1.271156616E0,8.401745288E0
5.835578416E0,-2.455643463E0,-7.894882507E0,1.575623474E0,8.416765647E0
5.845588417E0,-3.293750610E0,-8.443192291E0,1.365310822E0,9.165171182E0
5.855598417E0,-3.985611877E0,-8.862769775E0,1.059197388E0,9.775259037E0
5.865608416E0,-4.298760681E0,-9.087901611E0,8.613088989E-1,1.009015124E1
5.875618416E0,-4.497247925E0,-9.323361969E0,6.671626282E-1,1.037282137E1
5.885628417E0,-4.670288086E0,-9.544302521E0,4.204756165E-1,1.063400683E1
5.895638417E0,-4.695735168E0,-9.948462067E0,-7.149133301E-1,1.102419736E1
5.905648416E0,-4.609963531E0,-1.084509750E1,-3.423530731E0,1.227144923E1
5.915658417E0,-3.804787903E0,-1.095871124E1,-4.820874939E0,1.256226883E1
5.925668417E0,-3.832031250E0,-1.076561279E1,-3.549418945E0,1.196583709E1
5.935678416E0,-5.024900665E0,-1.062939606E1,-3.483256531E-1,1.176244099E1
5.945688417E0,-6.034251709E0,-1.031310379E1,2.040856018E0,1.212177366E1
5.955698417E0,-6.442452850E0,-9.898316345E0,2.903063049E0,1.216181073E1
5.965708416E0,-6.819219360E0,-9.655970306E0,2.520159302E0,1.208679933E1
5.975718417E0,-7.241191864E0,-9.303453369E0,1.261726227E0,1.185668829E1
5.985728417E0,-7.664212189E0,-9.039103088E0,1.847009125E0,1.199403918E1
5.995738416E0,-8.316405945E0,-9.602232056E0,2.897823944E0,1.302930742E1
6.005748417E0,-8.542884979E0,-1.007958939E1,2.575993195E0,1.346160269E1
6.015758417E0,-8.029003601E0,-1.049332901E1,6.759942627E-1,1.322995921E1
6.025768416E0,-7.025191040E0,-1.121991806E1,-2.835553436E0,1.353810303E1
6.035777417E0,-6.398144989E0,-1.227297821E1,-7.630083160E0,1.580444312E1
6.045787416E0,-7.408992920E0,-1.334100723E1,-9.865684204E0,1.817160903E1
6.055797417E0,-8.236322479E0,-1.330403412E1,-5.022056580E0,1.643336192E1
6.065807417E0,-7.102280731E0,-1.197255295E1,3.257226562E-1,1.392445729E1
6.075817416E0,-5.874384155E0,-1.095047836E1,1.762135620E0,1.255095564E1
6.085827417E0,-5.202132111E0,-1.056697586E1,1.924098816E0,1.193420771E1
6.095837417E0,-4.804409180E0,-1.090781708E1,1.814975739E0,1.205640734E1
6.105847125E0,-4.701722717E0,-1.185130508E1,1.808988190E0,1.287758001E1
6.115857125E0,-4.276756439E0,-1.332469116E1,1.861828308E0,1.411752262E1
6.125867125E0,-4.065096588E0,-1.501662277E1,1.806892548E0,1.566169947E1
6.135877125E0,-3.634142761E0,-1.646740585E1,1.606159973E0,1.693995865E1
6.145887125E0,-3.022814026E0,-1.748738480E1,1.405577087E0,1.780229419E1
6.155897125E0,-2.116149445E0,-1.768437515E1,1.208886108E0,1.785151586E1
6.165907125E0,-1.131197662E0,-1.671618851E1,8.704399109E-1,1.677701499E1
6.175917125E0,-1.651066589E-1,-1.528202087E1,-2.794688416E-1,1.528546777E1
6.185927125E0,1.108744354E0,-1.404858582E1,-2.550246735E0,1.432116741E1
6.195937125E0,2.069745941E0,-1.281260605E1,-5.262456665E0,1.400500525E1
6.205947125E0,1.769170990E0,-1.169727539E1,-5.568121033E0,1.307517455E1
6.215957125E0,1.243763580E0,-1.100107315E1,-2.678679657E0,1.139060503E1
6.225967125E0,9.824070740E-1,-1.049392776E1,5.216651917E-1,1.055271426E1
6.235977125E0,6.575825500E-1,-9.946665802E0,2.427651672E0,1.025973041E1
6.245987125E0,4.695735168E-1,-9.336833954E0,3.369343414E0,9.937275412E0
6.255997125E0,7.728428650E-1,-8.567433929E0,4.273014221E0,9.605043507E0
6.266007125E0,5.249583435E-1,-7.865244141E0,5.342839508E0,9.522792692E0
6.276016125E0,-2.544708252E-2,-7.135511627E0,4.587809601E0,8.483169848E0
6.286026125E0,-5.879772949E-1,-6.378236389E0,3.422033844E0,7.262088705E0
6.296036125E0,-1.082399139E0,-5.749992828E0,2.553390198E0,6.383870842E0
6.306046125E0,-1.584754486E0,-5.332510986E0,2.403402100E0,6.059988602E0
6.316056125E0,-1.919159088E0,-5.043761444E0,2.211501160E0,5.832104122E0
6.326066125E0,-2.073637848E0,-4.734504547E0,2.125130768E0,5.588531830E0
6.336076125E0,-2.126028900E0,-4.355343018E0,1.789828033E0,5.166478111E0
6.346086125E0,-1.870510254E0,-3.977378998E0,1.523681488E0,4.651876780E0
6.356096125E0,-5.631289673E-1,-3.710783386E0,1.402733002E0,4.006830100E0
6.366106125E0,9.003776550E-1,-3.689377899E0,1.381626892E0,4.041173354E0
6.376116125E0,1.396595764E0,-3.743714905E0,1.458566895E0,4.253621798E0
6.386126125E0,1.747316437E0,-3.613635406E0,1.539099426E0,4.298872250E0
6.396136125E0,2.046244812E0,-3.446882172E0,1.525777130E0,4.289068709E0
6.406146125E0,2.083217926E0,-3.261717224E0,1.457668762E0,4.135625031E0
6.416156125E0,1.971101074E0,-3.178041229E0,1.150806885E0,3.912740981E0
6.426166125E0,1.713786163E0,-3.287164307E0,6.279441833E-1,3.759897085E0
6.436176125E0,1.322649536E0,-3.705544281E0,-1.875599670E-1,3.938989586E0
6.446186125E0,5.852828979E-1,-4.697381744E0,-9.210346985E-1,4.822474079E0
6.456196125E0,-6.279441833E-1,-6.183191986E0,-2.004182281E0,6.530154949E0
6.466206125E0,-2.246228943E0,-8.052205353E0,-4.664001160E0,9.572693577E0
6.476216125E0,-5.633684692E0,-1.117635864E1,-1.331091980E1,1.827101479E1
6.486226125E0,-1.246996857E1,-1.526360916E1,-2.430016754E1,3.128859254E1
6.496235125E0,-1.522379196E1,-1.754217087E1,-1.538470734E1,2.786002190E1
6.506245125E0,-1.454345673E1,-1.889820099E1,-4.717290344E0,2.430857796E1
6.516255125E0,-1.612671432E1,-1.934277649E1,-1.911524963E0,2.525604571E1
6.526265125E0,-1.726345047E1,-1.745041168E1,-1.761087799E0,2.460985616E1
6.536275125E0,-1.706316696E1,-1.315434540E1,-3.735332336E0,2.186643952E1
6.546285125E0,-1.456216782E1,-8.054750061E0,-4.980892181E0,1.737080934E1
6.556295125E0,-9.224567413E0,-7.012467499E0,-3.444337463E0,1.208845751E1
6.566305125E0,-5.053491211E0,-1.278042297E1,-1.035995636E0,1.378224480E1
6.576315125E0,-2.419867859E0,-1.918964493E1,-2.814147949E-2,1.934163966E1
6.586325125E0,-2.394121399E0,-2.236259674E1,5.004093933E-1,2.249595430E1
6.596335125E0,-5.259612579E0,-2.121448425E1,3.165018311E0,2.208472792E1
6.606345125E0,-4.942272491E0,-1.461860046E1,4.601730652E0,1.610296438E1
6.616355125E0,-1.134939880E0,-8.712631989E0,2.410587158E0,9.110926141E0
6.626365125E0,2.598895569E0,-5.183421021E0,6.593788147E-1,5.835828311E0
6.636375125E0,5.598956909E0,-1.985171814E0,-2.818189545E0,6.575060297E0
6.646385125E0,7.049889679E0,-5.918692017E-1,-4.156556396E0,8.205377183E0
6.656395125E0,6.217321014E0,-1.296903076E0,9.514215088E-1,6.422012229E0
6.666405125E0,5.113516388E0,-3.204236755E0,4.084855499E0,7.287058905E0
6.676415125E0,4.178410950E0,-5.125491486E0,2.736908569E0,7.156846341E0
6.686425125E0,4.262835388E0,-7.240892487E0,3.425027618E0,9.073759074E0
6.696435125E0,4.196822662E0,-1.007479935E1,4.387376404E0,1.176282169E1
6.706445125E0,3.735032959E0,-1.272024811E1,4.466561737E0,1.398947307E1
6.716455125E0,3.257376251E0,-1.460108688E1,4.074826355E0,1.550504589E1
6.726464125E0,2.789000244E0,-1.531270706E1,3.668571167E0,1.599112048E1
6.736474125E0,1.825304260E0,-1.472248444E1,3.253484344E0,1.518777285E1
6.746484125E0,5.007087708E-1,-1.329954346E1,2.934048615E0,1.362854382E1
6.756494125E0,-4.656816101E-1,-1.177556259E1,2.545606384E0,1.205656857E1
6.766504125E0,-8.689430237E-1,-1.043704605E1,2.177521820E0,1.069713015E1
6.776514125E0,-9.635462952E-1,-9.343270569E0,1.796114960E0,9.563009742E0
6.786524125E0,-9.461824036E-1,-8.604856110E0,1.435365143E0,8.774912131E0
6.796534125E0,-7.420069885E-1,-8.103099518E0,1.755249939E0,8.324163532E0
6.806544125E0,-6.180647278E-1,-7.967930603E0,1.658850403E0,8.162212124E0
6.816554125E0,-8.753796387E-1,-8.650960236E0,2.758763123E-1,8.699512070E0
6.826564125E0,-1.300196228E0,-9.235943756E0,-6.146218872E-1,9.347241698E0
6.836574125E0,-1.517843628E0,-9.502539368E0,-1.229243774E0,9.701192915E0
6.846584125E0,-1.545685730E0,-9.603429565E0,-1.533411255E0,9.847149530E0
6.856594125E0,-1.547182617E0,-9.490115204E0,-1.256936188E0,9.697213477E0
6.866604125E0,-1.401834869E0,-9.257199554E0,-6.397695923E-1,9.384571899E0
6.876614125E0,-1.440454559E0,-8.939859467E0,-2.293231201E-1,9.058067438E0
6.886624125E0,-1.703457642E0,-8.634943542E0,-1.706451416E-2,8.801381091E0
6.896634125E0,-1.888173523E0,-8.371790771E0,1.022373962E-1,8.582687951E0
6.906644125E0,-1.936822357E0,-8.224197693E0,1.826202393E-1,8.451157239E0
6.916654125E0,-1.977687378E0,-8.218060455E0,-1.158590698E-1,8.453471969E0
6.926664125E0,-2.264041901E0,-8.496331787E0,-2.061962128E0,9.031346931E0
6.936674125E0,-2.597099304E0,-8.900341644E0,-3.259322205E0,9.827725445E0
6.946684125E0,-2.551743622E0,-9.101074219E0,-1.851050720E0,9.631580152E0
6.956694125E0,-2.725831604E0,-9.061257019E0,-4.784051514E-1,9.474460839E0
6.966703125E0,-3.009192352E0,-8.998687134E0,6.403683472E-1,9.510083089E0
6.976713125E0,-3.376229095E0,-8.994046783E0,1.027463379E0,9.661650037E0
6.986723125E0,-3.559448090E0,-9.063652039E0,9.508227539E-1,9.783839885E0
6.996733125E0,-3.631148987E0,-9.390721893E0,4.900808716E-1,1.008023214E1
7.006743125E0,-4.039799194E0,-1.011341904E1,-1.409169617E0,1.098121037E1
7.016753125E0,-4.755460968E0,-1.077354630E1,-2.964136047E0,1.214371489E1
7.026763125E0,-4.892276459E0,-1.070558762E1,-1.133592682E0,1.182493161E1
7.036773125E0,-4.874912567E0,-1.067011139E1,8.931925964E-1,1.176494125E1
7.046783125E0,-5.064568176E0,-1.065349594E1,1.576072540E0,1.190087523E1
7.056793125E0,-5.291645966E0,-1.050455566E1,2.278561707E0,1.198077836E1
7.066803125E0,-5.539081421E0,-1.020996826E1,1.871558075E0,1.176552610E1
7.076813125E0,-5.930218048E0,-9.811047821E0,1.108295288E0,1.151748514E1
7.086823125E0,-6.646628265E0,-9.844428406E0,1.257684631E0,1.194454723E1
7.096833125E0,-7.658524017E0,-1.043180695E1,1.770817566E0,1.306182916E1
7.106843417E0,-8.313112793E0,-1.104597977E1,1.737736359E0,1.393345761E1
7.116853416E0,-8.746311951E0,-1.156390274E1,5.281018066E-1,1.450864263E1
7.126863417E0,-9.154513092E0,-1.192884384E1,-1.887574768E0,1.515471425E1
7.136873417E0,-9.241482239E0,-1.236279144E1,-6.911577301E0,1.691193386E1
7.146883416E0,-8.944350128E0,-1.312365921E1,-1.622266479E1,2.270256997E1
7.156893417E0,-7.844886475E0,-1.255334518E1,-8.145012360E0,1.689585587E1
7.166903417E0,-6.634353790E0,-1.139370667E1,3.457809448E0,1.363039427E1
7.176913416E0,-5.369484100E0,-1.029783554E1,3.481160889E0,1.212416007E1
7.186923417E0,-4.469405823E0,-9.759255524E0,2.794089661E0,1.109169030E1
7.196933417E0,-4.350403290E0,-1.055095917E1,2.422113190E0,1.166684964E1
7.206942417E0,-4.623285828E0,-1.233315308E1,2.042502594E0,1.332866285E1
7.216952417E0,-4.573439484E0,-1.405966278E1,2.072140961E0,1.492930790E1
7.226962416E0,-4.187991028E0,-1.539458679E1,1.954934692E0,1.607340477E1
7.236972417E0,-3.574566650E0,-1.648731445E1,1.524729309E0,1.693912229E1
7.246982417E0,-2.979853363E0,-1.730057327E1,1.228495331E0,1.759825453E1
7.256992416E0,-2.396516418E0,-1.751956787E1,9.485774231E-1,1.770814356E1
7.267002417E0,-1.562750244E0,-1.699026855E1,2.332150269E-1,1.706358119E1
7.277012417E0,-2.631527710E-1,-1.561657516E1,-1.985920258E0,1.574454028E1
7.287022416E0,1.544188843E0,-1.368813538E1,-6.105353851E0,1.506734598E1
7.297032417E0,1.922152863E0,-1.169488037E1,-9.040300598E0,1.490610390E1
7.307042417E0,9.589059448E-1,-1.047521667E1,-5.867947540E0,1.204501861E1
7.317052417E0,2.634521484E-1,-9.868827667E0,-5.382806396E-1,9.887007262E0
7.327062416E0,6.601272583E-2,-9.274264069E0,2.968177643E0,9.737885305E0
7.337072417E0,1.333726501E-1,-8.527167664E0,5.406008148E0,1.009729175E1
7.347082417E0,9.729766846E-3,-7.775430908E0,6.255192261E0,9.979220946E0
7.357092416E0,-2.754272461E-1,-7.117848358E0,5.302573242E0,8.880141238E0
7.367102417E0,-6.852749634E-1,-6.446793823E0,4.307143250E0,7.783459086E0
7.377112417E0,-1.268013153E0,-5.907315674E0,3.519930267E0,6.992434834E0
7.387122416E0,-1.861977997E0,-5.588029633E0,2.527494049E0,6.409466702E0
7.397132417E0,-2.419718170E0,-5.450016632E0,1.835632782E0,6.239171822E0
7.407142417E0,-2.843337250E0,-5.247038727E0,1.469045105E0,6.146061799E0
7.417152416E0,-3.053350525E0,-4.812192993E0,1.613345032E0,5.923093197E0
7.427162417E0,-3.068768463E0,-4.287833405E0,2.031425629E0,5.650623441E0
7.437171416E0,-2.448757782E0,-3.862567749E0,2.164798279E0,5.059861251E0
7.447181417E0,-6.981481934E-1,-3.769910431E0,2.237846375E0,4.439323367E0
7.457191417E0,4.990621948E-1,-4.088298340E0,2.238145752E0,4.687487898E0
7.467201416E0,1.089733887E0,-4.279301147E0,2.172282715E0,4.921254967E0
7.477211417E0,1.622326355E0,-4.396357727E0,2.235151978E0,5.191898345E0
7.487221417E0,2.163002014E0,-4.455784149E0,2.174078979E0,5.409178265E0
7.497231416E0,2.421364746E0,-4.417314148E0,1.984123993E0,5.414094526E0
7.507241417E0,2.544109497E0,-4.402045898E0,1.537452850E0,5.311709941E0
7.517251417E0,2.560724945E0,-4.467160492E0,7.960446167E-1,5.210232446E0
7.527261416E0,2.269131317E0,-4.720882874E0,-1.797761536E-1,5.240993370E0
7.537271417E0,1.859882355E0,-5.276377716E0,-1.364861755E0,5.758660590E0
7.547281417E0,1.240470428E0,-6.533014526E0,-2.899021454E0,7.254196791E0
7.557291416E0,1.823208618E-1,-8.522227936E0,-6.070626068E0,1.046489898E1
7.567301417E0,-2.847678223E0,-1.133727402E1,-1.438763077E1,1.853771756E1
7.577311417E0,-9.386979675E0,-1.457249634E1,-2.416514832E1,2.973932464E1
7.587321416E0,-1.240186020E1,-1.683144882E1,-1.629646133E1,2.650808288E1
7.597331417E0,-1.201895645E1,-1.832743790E1,-7.053631897E0,2.302398786E1
7.607341417E0,-1.324475739E1,-1.903411835E1,-3.867657166E0,2.350914782E1
7.617351416E0,-1.500330048E1,-1.749771332E1,-2.496059418E0,2.318403134E1
7.627361416E0,-1.584155731E1,-1.375938721E1,-3.445534973E0,2.126375756E1
7.637371417E0,-1.450453766E1,-9.098529510E0,-4.841981049E0,1.779352782E1
7.647381417E0,-1.059347076E1,-6.788084106E0,-3.502865753E0,1.306023649E1
7.657391416E0,-6.332880707E0,-9.332043915E0,-1.242865448E0,1.134623886E1
7.667401417E0,-3.701203308E0,-1.395817383E1,6.242019653E-2,1.444068623E1
7.677410417E0,-2.848426666E0,-1.806368637E1,1.186432800E0,1.832533554E1
7.687420417E0,-4.284839630E0,-2.021815613E1,3.283571777E0,2.092643141E1
7.697430416E0,-5.578898621E0,-1.812700470E1,3.563339996E0,1.929792220E1
7.707440417E0,-3.628155212E0,-1.127260849E1,1.237177277E0,1.190654526E1
7.717450417E0,-5.688171387E-3,-6.822961578E0,3.743714905E-1,6.833226988E0
7.727460416E0,2.422262878E0,-4.223616943E0,7.331753540E-1,4.923803777E0
7.737470416E0,4.298461304E0,-2.021695862E0,-1.870360565E0,5.105122171E0
7.747480417E0,5.624403992E0,-1.188079376E0,-2.373913422E0,6.219398508E0
7.757490417E0,5.280419312E0,-2.428100739E0,1.368154907E0,5.970791334E0
7.767500416E0,4.030967560E0,-4.873265991E0,2.873724060E0,6.946633059E0
7.777510417E0,3.557352448E0,-7.037016449E0,2.641856232E0,8.315874054E0
7.787520417E0,3.658392334E0,-9.555529175E0,3.137924652E0,1.070226814E1
7.797530416E0,3.684138794E0,-1.196866104E1,3.580105133E0,1.302454907E1
7.807540417E0,3.432362366E0,-1.364263000E1,3.525468750E0,1.450280644E1
7.817550417E0,3.011287994E0,-1.436383026E1,3.237467651E0,1.502892784E1
7.827560416E0,2.117346954E0,-1.392898453E1,2.942730560E0,1.439303412E1
7.837570417E0,9.912387085E-1,-1.271830215E1,2.710263977E0,1.304159863E1
7.847580417E0,2.441423035E-1,-1.135808075E1,2.438429260E0,1.161944668E1
7.857590416E0,-1.712438965E-1,-1.016670822E1,2.266736298E0,1.041774323E1
7.867600417E0,-4.040098572E-1,-9.338630219E0,1.945803680E0,9.547742680E0
7.877610417E0,-4.760101318E-1,-8.971892853E0,1.642983398E0,9.133501051E0
7.887620416E0,-5.369334412E-1,-9.020092621E0,1.431173859E0,9.148695373E0
7.897630417E0,-6.390211487E-1,-9.250164185E0,1.219963074E0,9.352122506E0
7.907640417E0,-7.512876892E-1,-9.404044189E0,9.247769165E-1,9.479224264E0
7.917649417E0,-1.063688049E0,-9.570348358E0,2.418969727E-1,9.632316134E0
7.927659417E0,-1.464255066E0,-9.677824860E0,-6.447093201E-1,9.809178713E0
7.937669416E0,-1.875599670E0,-9.497150574E0,-1.193468170E0,9.753876635E0
7.947679417E0,-2.067051544E0,-9.169481964E0,-1.312919769E0,9.490830306E0
7.957689417E0,-2.146835632E0,-8.868008881E0,-9.536668396E-1,9.173874055E0
7.967699416E0,-2.162403259E0,-8.558901672E0,-2.534230042E-1,8.831478297E0
7.977709417E0,-2.164498901E0,-8.102800140E0,1.971400452E-1,8.389236545E0
7.987719417E0,-2.190694427E0,-7.599696350E0,3.381468201E-1,7.916367220E0
7.997729416E0,-2.185455322E0,-7.202572174E0,4.339476013E-1,7.539334945E0
8.007739417E0,-2.181413727E0,-7.017856293E0,6.309379578E-1,7.376107069E0
8.017749417E0,-2.192490692E0,-7.028933258E0,8.089178467E-1,7.407244175E0
8.027759416E0,-2.202519836E0,-7.312294006E0,9.246272278E-1,7.692572572E0
8.037769416E0,-2.288141785E0,-7.784561920E0,1.041234741E0,8.180413614E0
8.047779417E0,-2.463427277E0,-8.439001007E0,1.231189728E0,8.876994992E0
8.057789417E0,-2.819836121E0,-9.461674347E0,1.442550201E0,9.977760685E0
8.067799416E0,-3.307971039E0,-1.022448807E1,1.129850464E0,1.080552593E1
8.077809417E0,-3.560495911E0,-1.050964508E1,7.435038757E-1,1.112126651E1
8.087819417E0,-3.621868286E0,-1.079285614E1,2.318678284E-1,1.138672193E1
8.097829416E0,-2.991379395E0,-1.083910995E1,-1.686093750E0,1.137002935E1
8.107839875E0,-1.652264099E0,-1.059811111E1,-5.365891571E0,1.199344522E1
8.117849875E0,-1.100212097E0,-1.046907944E1,-6.699019318E0,1.247753785E1
8.127859875E0,-2.345921631E0,-1.065199905E1,-3.537294159E0,1.146651133E1
8.137869875E0,-4.250261536E0,-1.080093933E1,2.694396973E-1,1.161023735E1
8.147879875E0,-5.143603821E0,-1.072429871E1,1.957629089E0,1.205402649E1
8.157888875E0,-5.646557922E0,-1.031729507E1,2.680326233E0,1.206293259E1
8.167898875E0,-6.134243774E0,-9.497300262E0,3.258873138E0,1.176638913E1
8.177908875E0,-6.350394287E0,-9.792935486E0,2.628084869E0,1.196394262E1
8.187918875E0,-6.592590637E0,-1.011805939E1,2.054627380E0,1.224985187E1
8.197928875E0,-7.286697235E0,-1.044153671E1,2.374661865E0,1.295224554E1
8.207938875E0,-7.908055115E0,-1.065199905E1,2.669398956E0,1.353248352E1
8.217948875E0,-7.949818268E0,-1.044093796E1,2.307002563E0,1.332422819E1
8.227958875E0,-7.366181946E0,-1.015473312E1,4.870870972E-1,1.255454082E1
8.237968875E0,-6.662944336E0,-1.003393433E1,-3.233276367E0,1.247111628E1
8.247978875E0,-6.946754150E0,-1.055051010E1,-7.874075775E0,1.488528555E1
8.257988875E0,-8.649313660E0,-1.156450150E1,-1.215352661E1,1.887475909E1
8.267998875E0,-9.173822937E0,-1.228839615E1,-6.541247406E0,1.667188126E1
8.278008875E0,-7.662864990E0,-1.232267487E1,1.357377319E0,1.457430235E1
8.288018875E0,-6.166576538E0,-1.174532547E1,2.851420441E0,1.356871162E1
8.298028875E0,-5.262007599E0,-1.150567383E1,2.479893036E0,1.289259957E1
8.308038875E0,-4.924908600E0,-1.218017120E1,1.551074524E0,1.322940390E1
8.318048875E0,-4.829556885E0,-1.344698685E1,1.166524200E0,1.433551023E1
8.328058875E0,-4.591851196E0,-1.473790237E1,1.593137054E0,1.551866455E1
8.338068875E0,-4.007017365E0,-1.617236938E1,2.077978821E0,1.679046502E1
8.348078875E0,-3.445834351E0,-1.754157211E1,1.990261230E0,1.798726400E1
8.358088875E0,-2.814297638E0,-1.838387054E1,1.808838501E0,1.868579311E1
8.368098875E0,-1.923949127E0,-1.824630661E1,1.840871887E0,1.843957956E1
8.378108875E0,-9.737251282E-1,-1.727841934E1,1.867516479E0,1.740630729E1
8.388118875E0,-1.038839722E-1,-1.591640167E1,1.157393188E0,1.595876540E1
8.398127875E0,1.294208679E0,-1.432116898E1,-1.172212372E0,1.442722908E1
8.408137875E0,2.867437134E0,-1.253702911E1,-4.387526093E0,1.358858638E1
8.418147875E0,3.640279999E0,-1.081785416E1,-7.217541046E0,1.350446244E1
8.428157875E0,2.748584290E0,-9.697434082E0,-6.562503204E0,1.202752642E1
8.438167875E0,1.728156281E0,-9.446705475E0,-2.730471954E0,9.984099637E0
8.448177875E0,1.279539185E0,-9.447004852E0,1.374441833E0,9.631833240E0
8.458187875E0,1.191522217E0,-9.138197021E0,4.607269135E0,1.030307230E1
8.468197875E0,1.232536926E0,-8.356672211E0,6.241869965E0,1.050304996E1
8.478207875E0,8.021818542E-1,-7.605234833E0,5.859115906E0,9.633915704E0
8.488217875E0,2.195933533E-1,-6.784341888E0,4.798421631E0,8.312663006E0
8.498227875E0,-3.673361206E-1,-6.063740387E0,3.413501587E0,6.968204675E0
8.508237875E0,-1.081800385E0,-5.603597260E0,2.300266571E0,6.153195968E0
8.518247875E0,-1.717378693E0,-5.261259155E0,1.789678345E0,5.816630128E0
8.528257875E0,-2.313439178E0,-5.186564484E0,2.001487885E0,6.021495307E0
8.538267875E0,-2.729274445E0,-5.138813782E0,2.198777618E0,6.220206515E0
8.548277875E0,-3.029699707E0,-4.924758911E0,2.043700104E0,6.132621035E0
8.558287875E0,-3.101849670E0,-4.607568512E0,1.892664185E0,5.867992560E0
8.568297875E0,-1.619631958E0,-4.463717651E0,2.047142944E0,5.170955152E0
8.578307875E0,6.297404480E-1,-4.518803101E0,2.526146851E0,5.215129184E0
8.588317875E0,1.429078217E0,-4.644541626E0,2.634072418E0,5.527419739E0
8.598327875E0,1.908680878E0,-4.694687347E0,2.560724945E0,5.678068706E0
8.608337875E0,2.143243103E0,-4.642296295E0,2.330354004E0,5.619159695E0
8.618347875E0,2.299667816E0,-4.493356018E0,1.897154846E0,5.392394355E0
8.628357875E0,2.222578125E0,-4.265380096E0,1.325343933E0,4.988973585E0
8.638366875E0,1.984423370E0,-4.140839081E0,3.655398560E-1,4.606311300E0
8.648376875E0,1.588347015E0,-4.279600525E0,-7.568261719E-1,4.627160333E0
8.658386875E0,8.306227112E-1,-4.990172882E0,-1.817969513E0,5.375571842E0
8.668396875E0,-3.403921509E-1,-6.338718567E0,-3.085982666E0,7.058222786E0
8.678406875E0,-1.927242279E0,-8.084388428E0,-5.961802368E0,1.022813211E1
8.688416875E0,-5.643264771E0,-1.080438217E1,-1.485286331E1,1.921428271E1
8.698426875E0,-1.181238602E1,-1.442669952E1,-2.276555878E1,2.942673596E1
8.708436875E0,-1.361194382E1,-1.642100235E1,-1.289298889E1,2.492315179E1
8.718446875E0,-1.296513885E1,-1.733754639E1,-4.831203461E0,2.218165610E1
8.728456875E0,-1.392090134E1,-1.721210724E1,-2.458337860E0,2.227311282E1
8.738466875E0,-1.500180359E1,-1.521046967E1,-1.847458191E0,2.144354449E1
8.748476875E0,-1.498548752E1,-1.136885834E1,-3.429667969E0,1.912010456E1
8.758486875E0,-1.301019516E1,-6.882687378E0,-4.812492371E0,1.548536879E1
8.768496875E0,-8.612041168E0,-4.628973999E0,-3.158731384E0,1.027483515E1
8.778506875E0,-4.906796265E0,-6.376589813E0,-7.020401001E-2,8.046270927E0
8.788516875E0,-3.029400330E0,-1.037013519E1,2.750230865E0,1.114812720E1
8.798526875E0,-1.970053253E0,-1.339863739E1,5.078339539E0,1.446354473E1
8.808536875E0,-1.664837952E0,-1.561882050E1,7.088359680E0,1.723264582E1
8.818546875E0,-1.327439575E0,-1.746148865E1,5.417234802E0,1.833063323E1
8.828556875E0,-3.148103485E0,-1.876393021E1,-7.688312073E0,2.052086194E1
8.838566875E0,-1.126407623E0,-1.542452454E1,-8.640631714E0,1.771567858E1
8.848576875E0,3.137475586E0,-9.392069092E0,5.185217285E-1,9.915824709E0
8.858586875E0,3.397185516E0,-6.418352966E0,2.560275879E0,7.700073818E0
8.868596875E0,3.679797821E0,-5.629044342E0,4.171974335E0,7.914064825E0
8.878605875E0,3.993545380E0,-5.880371704E0,4.298012238E0,8.306628996E0
8.888615875E0,3.605552216E0,-6.731052704E0,3.519181824E0,8.407836701E0
8.898625875E0,3.208877106E0,-8.091124420E0,3.132535858E0,9.250727948E0
8.908635875E0,2.840942230E0,-9.770482178E0,2.956501923E0,1.059595104E1
8.918645875E0,2.537672882E0,-1.102996307E1,3.022065582E0,1.171463826E1
8.928655875E0,2.126927032E0,-1.166703827E1,2.982996826E0,1.222873136E1
8.938665875E0,1.527423706E0,-1.180220718E1,2.748883667E0,1.221398702E1
8.948675875E0,7.009922791E-1,-1.160985718E1,2.476001129E0,1.189162543E1
8.958685875E0,1.932481384E-1,-1.115645004E1,2.359243927E0,1.140481277E1
8.968695875E0,-4.700225830E-2,-1.065140030E1,2.288890228E0,1.089465722E1
8.978705875E0,-2.969824219E-1,-1.027538223E1,2.031275940E0,1.047844266E1
8.988715875E0,-4.992118835E-1,-9.984686737E0,1.778601379E0,1.015414224E1
8.998725875E0,-5.682183838E-1,-9.612410889E0,1.661544800E0,9.771491511E0
9.008735875E0,-3.984713745E-1,-8.923244019E0,1.860331421E0,9.123809306E0
9.018745875E0,-4.005670166E-1,-9.013656006E0,8.057743835E-1,9.058461287E0
9.028755875E0,-8.080197144E-1,-9.492360535E0,-5.803431702E-1,9.544349248E0
9.038765875E0,-1.087937622E0,-9.502838745E0,-1.696571960E0,9.714211697E0
9.048775875E0,-1.227148132E0,-9.212292938E0,-2.710713043E0,9.680919322E0
9.058785875E0,-1.437760162E0,-8.820707245E0,-3.150947571E0,9.476312636E0
9.068795875E0,-1.576072540E0,-8.424630890E0,-2.627635803E0,8.964534578E0
9.078805875E0,-1.676663361E0,-8.001909943E0,-1.326691132E0,8.282624712E0
9.088815875E0,-1.722617798E0,-7.752678223E0,-1.522334290E-1,7.943211361E0
9.098825875E0,-1.777403870E0,-7.602839813E0,4.667294312E-1,7.821775636E0
9.108835625E0,-1.895358582E0,-7.469916229E0,6.953041077E-1,7.737924814E0
9.118845625E0,-2.017205200E0,-7.450606384E0,8.164022827E-1,7.761904728E0
9.128854625E0,-2.001188507E0,-7.411387939E0,9.279203796E-1,7.732687945E0
9.138864625E0,-1.969753876E0,-7.445217590E0,9.497749329E-1,7.759720853E0
9.148874625E0,-2.047142944E0,-7.587571564E0,9.695338440E-1,7.918461488E0
9.158884625E0,-2.139650574E0,-7.995473328E0,1.046773224E0,8.342747299E0
9.168894625E0,-2.485581207E0,-8.780590668E0,1.023272095E0,9.182808513E0
9.178904625E0,-2.835553436E0,-9.418563995E0,8.616082764E-1,9.873807768E0
9.188914625E0,-2.962639160E0,-9.766290894E0,7.372169495E-1,1.023235835E1
9.198924625E0,-2.860701141E0,-9.855655060E0,6.917115784E-1,1.028571887E1
9.208934625E0,-2.696492615E0,-9.770332489E0,6.297404480E-1,1.015514857E1
9.218944625E0,-2.550546112E0,-9.818681946E0,6.975494385E-2,1.014478518E1
9.228954625E0,-2.272424469E0,-1.021281235E1,-2.199825439E0,1.069133673E1
9.238964625E0,-2.379900970E0,-1.055649765E1,-3.898493042E0,1.150225279E1
9.248974625E0,-3.693419495E0,-1.092667786E1,-2.669099579E0,1.183882296E1
9.258984625E0,-4.573439484E0,-1.111453720E1,-2.592608643E-1,1.202150166E1
9.268994625E0,-4.932542725E0,-1.152603149E1,1.199455719E0,1.259436675E1
9.279004625E0,-5.447471924E0,-1.180071030E1,2.236199799E0,1.318833968E1
9.289014625E0,-5.807173920E0,-1.176762909E1,2.429148560E0,1.334545338E1
9.299024625E0,-6.389163666E0,-1.129551086E1,2.189945984E0,1.316076903E1
9.309034625E0,-7.041058044E0,-1.051189041E1,-2.002835083E-1,1.265371297E1
9.319044625E0,-7.960296478E0,-1.030067963E1,-4.911286926E-1,1.302733772E1
9.329054625E0,-9.133706360E0,-1.105780518E1,5.059478760E-1,1.435115432E1
9.339064625E0,-9.796228638E0,-1.155177795E1,-3.703298950E-1,1.515080241E1
9.349074625E0,-1.003168900E1,-1.152169052E1,-2.623594208E0,1.550056074E1
9.359083625E0,-1.006656647E1,-1.127096191E1,-5.964496765E0,1.624640159E1
9.369093625E0,-9.688153381E0,-1.139101227E1,-7.356601868E0,1.666538531E1
9.379103625E0,-7.931107178E0,-1.151061356E1,-2.936443634E0,1.428353551E1
9.389113625E0,-6.105204163E0,-1.144085861E1,1.171014862E0,1.302067738E1
9.399123625E0,-5.320984955E0,-1.135508698E1,2.242786102E0,1.273895485E1
9.409133625E0,-5.012626190E0,-1.210817093E1,2.195634155E0,1.328740132E1
9.419143625E0,-4.735702057E0,-1.366583176E1,2.226020966E0,1.463342068E1
9.429153625E0,-4.186943207E0,-1.515598297E1,2.736908569E0,1.596010594E1
9.439163625E0,-3.612886963E0,-1.662607590E1,2.634072418E0,1.721678511E1
9.449173625E0,-3.098855896E0,-1.778346909E1,2.118544464E0,1.817533799E1
9.459183625E0,-2.502945099E0,-1.810739548E1,1.760638733E0,1.836415949E1
9.469193625E0,-1.956431580E0,-1.741583359E1,1.547182617E0,1.759354024E1
9.479203625E0,-1.418150940E0,-1.587733292E1,1.240919495E0,1.598876899E1
9.489213625E0,-6.888674927E-1,-1.415306854E1,1.713935852E-1,1.417085965E1
9.499223625E0,2.586621094E-1,-1.264435593E1,-1.707050171E0,1.276168732E1
9.509233625E0,1.078956299E0,-1.140523270E1,-3.645668793E0,1.202224524E1
9.519243625E0,1.165626068E0,-1.049018555E1,-4.671335907E0,1.154227257E1
9.529253625E0,7.309300232E-1,-9.728719025E0,-3.788022766E0,1.046572258E1
9.539263625E0,4.025129700E-1,-9.197473755E0,-1.223705292E0,9.287249044E0
9.549273625E0,2.080673218E-1,-8.902736664E0,1.327439575E0,9.003560848E0
9.559283625E0,3.772155762E-1,-8.615933075E0,2.966680756E0,9.120185801E0
9.569293625E0,7.012916565E-1,-8.190218353E0,4.736899567E0,9.487344421E0
9.579303625E0,4.420307922E-1,-7.842042389E0,5.305866394E0,9.478672810E0
9.589313625E0,6.406677246E-2,-7.381899261E0,4.990172882E0,8.910576112E0
9.599322625E0,-5.987548828E-2,-6.863826599E0,4.549040222E0,8.234650424E0
9.609332625E0,-1.128652954E-1,-6.517895966E0,4.071832581E0,7.686060562E0
9.619342625E0,-3.547622681E-1,-6.229745178E0,3.839216309E0,7.326333538E0
9.629352625E0,-7.659571838E-1,-5.899980927E0,3.513343964E0,6.909417569E0
9.639362625E0,-1.313668213E0,-5.507796478E0,2.938539276E0,6.379385495E0
9.649372625E0,-1.902094574E0,-4.949906616E0,2.178419952E0,5.732804965E0
9.659382625E0,-2.311642914E0,-4.325105896E0,1.965562592E0,5.283338932E0
9.669392625E0,-2.121837616E0,-3.800446930E0,1.906734924E0,4.751971150E0
9.679402625E0,-2.180964661E-1,-3.670816498E0,2.041454773E0,4.205947862E0
9.689412625E0,1.103056183E0,-3.923790436E0,2.056723022E0,4.565410597E0
9.699422625E0,1.758094025E0,-4.006119232E0,2.130070496E0,4.865910626E0
9.709432625E0,2.255359955E0,-3.966751099E0,2.111060028E0,5.027756681E0
9.719442625E0,2.568359070E0,-3.859124908E0,1.832788696E0,4.984819734E0
9.729452625E0,2.616409149E0,-3.735631714E0,1.481020203E0,4.795201975E0
9.739462625E0,2.354603577E0,-3.774101715E0,7.866142273E-1,4.517384609E0
9.749472625E0,1.908381500E0,-4.193230133E0,-1.116677856E-1,4.608423656E0
9.759482625E0,1.556163940E0,-5.201533356E0,-1.168619843E0,5.553671560E0
9.769492625E0,9.943821716E-1,-6.916966095E0,-2.877466278E0,7.557316193E0
9.779502625E0,-4.073030090E-1,-9.297016754E0,-7.037315826E0,1.166722890E1
9.789512625E0,-4.935835876E0,-1.294133835E1,-1.982043320E1,2.418036985E1
9.799522625E0,-1.202793777E1,-1.625888947E1,-2.652244629E1,3.335360447E1
9.809532625E0,-1.295061905E1,-1.739143433E1,-1.165760788E1,2.461869905E1
9.819542625E0,-1.203003342E1,-1.791489578E1,-3.060385895E0,2.179520949E1
9.829551625E0,-1.337693253E1,-1.745130981E1,-7.370672607E-1,2.200076831E1
9.839561625E0,-1.492097168E1,-1.526585449E1,-5.855822754E-1,2.135473287E1
9.849571625E0,-1.522992920E1,-1.139685013E1,-2.772085419E0,1.922299128E1
9.859581625E0,-1.399484756E1,-6.778354340E0,-4.228107605E0,1.611455056E1
9.869591625E0,-1.087952591E1,-3.518583069E0,-2.588567047E0,1.172370207E1
9.879601625E0,-7.317982178E0,-3.428470459E0,2.386038208E-1,8.084813209E0
9.889611625E0,-4.461622009E0,-6.757397919E0,2.376757507E0,8.439044604E0
9.899621625E0,-2.873873749E0,-1.243404327E1,4.328997803E0,1.347608268E1
9.909631625E0,-2.941682739E0,-1.665810928E1,6.297703857E0,1.805012953E1
9.919641625E0,-3.144960022E0,-1.936103851E1,7.349716187E0,2.094657284E1
9.929651625E0,-2.666405182E0,-1.934831497E1,3.973636780E0,1.993130197E1
9.939661625E0,-5.313500519E0,-1.614063538E1,-1.056952057E1,2.001170066E1
9.949671625E0,-7.059320068E-1,-1.106663681E1,-9.737101593E0,1.475736893E1
9.959681625E0,5.343887329E0,-7.254214783E0,-6.198160858E0,1.093608531E1
9.969691625E0,5.143304443E0,-5.524112549E0,-3.283571777E0,8.231114364E0
9.979701625E0,3.934118958E0,-5.565726013E0,1.607806549E0,7.002830851E0
9.989711625E0,4.324507141E0,-5.918841705E0,3.732338562E0,8.225837361E0
9.999721625E0,4.815037079E0,-6.330934753E0,4.379442902E0,9.079913934E0
1.000973162E1,4.536017303E0,-7.905360718E0,3.902983704E0,9.914810278E0
1.001974163E1,3.811823273E0,-9.871222687E0,3.620820465E0,1.118397849E1
1.002975162E1,3.066523132E0,-1.160566589E1,4.219425659E0,1.272393799E1
1.003976162E1,2.325863342E0,-1.267743713E1,4.117188263E0,1.353064270E1
1.004977163E1,1.619631958E0,-1.284718414E1,3.657344513E0,1.345546420E1
1.005978162E1,6.634204102E-1,-1.243778549E1,3.095862122E0,1.283444572E1
1.006979063E1,-1.978884888E-1,-1.174951675E1,2.775677948E0,1.207454727E1
1.007980062E1,-8.101153564E-1,-1.099239120E1,2.592009888E0,1.132287360E1
1.008981062E1,-1.186283112E0,-1.015847534E1,2.274071045E0,1.047727484E1
1.009982063E1,-1.137933655E0,-9.405391388E0,1.915267181E0,9.665636479E0
1.010983075E1,-9.931846619E-1,-8.921298065E0,1.610201569E0,9.119688812E0
1.011984075E1,-8.098159790E-1,-8.379724274E0,1.868564301E0,8.623636899E0
1.012985075E1,-7.403604126E-1,-7.968080292E0,1.673070831E0,8.175426783E0
1.013986075E1,-1.164428558E0,-8.679999847E0,3.692820740E-1,8.765538230E0
1.014987075E1,-1.600322113E0,-9.197324066E0,-4.197271729E-1,9.344943646E0
1.015988075E1,-1.824705505E0,-9.332343292E0,-8.731343079E-1,9.549059903E0
1.016989075E1,-1.818418579E0,-9.203161926E0,-1.226399689E0,9.460913897E0
1.017990075E1,-1.731299744E0,-8.994046783E0,-1.125359802E0,9.228039393E0
1.018991075E1,-1.693428497E0,-8.691675568E0,-6.902146912E-1,8.881966031E0
1.019992075E1,-1.765428772E0,-8.307574310E0,-1.887574768E-1,8.495184463E0
1.020993075E1,-1.806293793E0,-7.856562195E0,4.520599365E-2,8.061656800E0
1.021994075E1,-1.787433014E0,-7.546556854E0,2.022294617E-1,7.757985169E0
1.022995075E1,-1.834285583E0,-7.527247009E0,3.861968994E-1,7.757138595E0
1.023996075E1,-1.922152863E0,-7.676935730E0,3.209326172E-1,7.920417386E0
1.024997075E1,-2.417173462E0,-8.178842010E0,-1.226848755E0,8.616341570E0
1.025998075E1,-2.985840912E0,-9.097631378E0,-2.827769623E0,9.983908237E0
1.026999075E1,-3.268453217E0,-9.585167542E0,-2.056273956E0,1.033375468E1
1.028000075E1,-3.510799255E0,-9.545649719E0,-8.345146179E-1,1.020497695E1
1.029001075E1,-3.563339996E0,-9.392218781E0,3.923341370E-1,1.005311353E1
1.030001975E1,-3.579506378E0,-9.250762939E0,8.346643066E-1,9.954202398E0
1.031002975E1,-3.562890930E0,-9.226663055E0,8.045768738E-1,9.923348571E0
1.032003975E1,-3.467239838E0,-9.559870148E0,5.370831299E-1,1.018338488E1
1.033004975E1,-3.689976654E0,-1.044557831E1,-1.269360352E0,1.115066409E1
1.034005975E1,-4.190835114E0,-1.150402725E1,-3.877686310E0,1.284298225E1
1.035006975E1,-4.371210022E0,-1.108010880E1,-2.823728027E0,1.224131235E1
1.036007975E1,-4.721331940E0,-1.022763153E1,3.083587646E-2,1.126482902E1
1.037008975E1,-5.028044128E0,-1.032627640E1,1.647174683E0,1.160286156E1
1.038009975E1,-5.285957794E0,-1.047716263E1,2.102827148E0,1.192200355E1
1.039010975E1,-5.621260529E0,-1.040546173E1,2.049388275E0,1.200300779E1
1.040011975E1,-6.063590698E0,-1.023436752E1,1.880689087E0,1.204352117E1
1.041012975E1,-6.437213745E0,-1.011222153E1,6.182144165E-1,1.200320516E1
1.042013975E1,-7.005432129E0,-1.021505768E1,1.088237000E-1,1.238690136E1
1.043014975E1,-7.917335815E0,-1.095242432E1,7.147636414E-1,1.353331784E1
1.044015975E1,-8.565038910E0,-1.159189453E1,8.461903381E-1,1.443772657E1
1.045016975E1,-8.826545105E0,-1.164653091E1,-7.649093628E-1,1.463334094E1
1.046017975E1,-9.149872742E0,-1.166299667E1,-6.902296600E0,1.635198340E1
1.047018975E1,-8.086184692E0,-1.223510696E1,-1.362811020E1,2.002023009E1
1.048019975E1,-5.522016907E0,-1.226594284E1,-6.399641876E0,1.489635662E1
1.049020975E1,-5.300028534E0,-1.211116470E1,2.418520660E0,1.343948865E1
1.050021975E1,-4.901706848E0,-1.199096466E1,3.223097534E0,1.334909440E1
1.051022975E1,-4.129163361E0,-1.249406845E1,3.004102936E0,1.349727272E1
1.052023975E1,-3.812871094E0,-1.386836060E1,2.769989777E0,1.464726101E1
1.053024875E1,-3.829636230E0,-1.575503723E1,2.355501709E0,1.638400745E1
1.054025875E1,-3.816164246E0,-1.742975464E1,2.151475983E0,1.797187540E1
1.055026875E1,-3.256029053E0,-1.797297501E1,1.880988464E0,1.836212606E1
1.056027875E1,-2.478096771E0,-1.744158005E1,1.725461884E0,1.770104225E1
1.057028875E1,-1.658700714E0,-1.644106064E1,1.580263824E0,1.659990954E1
1.058029875E1,-1.056652679E0,-1.500434830E1,1.281036072E0,1.509596092E1
1.059030875E1,-5.192701721E-1,-1.370939117E1,7.185058594E-1,1.373802382E1
1.060031875E1,2.504292297E-1,-1.236174362E1,-8.598120117E-1,1.239413962E1
1.061032875E1,9.939331055E-1,-1.090826614E1,-3.352578278E0,1.145504057E1
1.062033875E1,1.196611633E0,-9.506431274E0,-5.411846008E0,1.100418976E1
1.063034875E1,7.788304138E-1,-8.613388367E0,-4.815186768E0,9.898639279E0
1.064035875E1,5.297483826E-1,-8.148604889E0,-2.373614044E0,8.503789662E0
1.065036875E1,5.899232483E-1,-7.942782898E0,5.140310669E-1,7.981230327E0
1.066037875E1,7.068301392E-1,-7.861950989E0,3.842060394E0,8.779026727E0
1.067038875E1,4.249662781E-1,-7.614964600E0,5.556295624E0,9.436138153E0
1.068039875E1,1.977388000E-1,-7.242838440E0,6.253395996E0,9.570933642E0
1.069040875E1,2.514770508E-2,-6.839876404E0,5.724545746E0,8.919359037E0
1.070041875E1,-1.276844788E-1,-6.524482269E0,4.793182526E0,8.096898847E0
1.071042875E1,-2.975811768E-1,-6.264023895E0,3.809128876E0,7.337302823E0
1.072043875E1,-6.843768311E-1,-6.080505524E0,2.581831055E0,6.641292846E0
1.073044875E1,-1.087787933E0,-5.771548004E0,1.287772064E0,6.012687073E0
1.074045875E1,-1.554367676E0,-5.279371490E0,4.828958130E-1,5.524582389E0
1.075046875E1,-2.125879211E0,-4.775219879E0,7.396119690E-1,5.279120493E0
1.076047875E1,-1.924697571E0,-4.542154541E0,1.200653229E0,5.077124855E0
1.077048875E1,-2.942880249E-1,-4.573289795E0,1.775308228E0,4.914601133E0
1.078049775E1,7.472460938E-1,-4.633015594E0,2.034868469E0,5.115065973E0
1.079050775E1,1.727707214E0,-4.760550385E0,2.059267731E0,5.467028056E0
1.080051775E1,2.685116272E0,-4.870571594E0,2.036365356E0,5.922761258E0
1.081052775E1,3.306773529E0,-4.815037079E0,1.799557800E0,6.112097964E0
1.082053775E1,3.494483185E0,-4.631668396E0,1.428030396E0,5.975201726E0
1.083054775E1,3.061284027E0,-4.459077301E0,6.246510315E-1,5.444723977E0
1.084055775E1,2.429897003E0,-4.625680847E0,-4.182302856E-1,5.241778259E0
1.085056775E1,1.729353790E0,-5.356760559E0,-1.405876465E0,5.801899418E0
1.086057775E1,4.903802490E-1,-6.770869904E0,-2.995420990E0,7.420087530E0
1.087058775E1,-1.431473236E0,-8.544531555E0,-6.235283661E0,1.067412280E1
1.088059775E1,-4.884342957E0,-1.072774155E1,-1.351374802E1,1.793216747E1
1.089060775E1,-1.066427353E1,-1.369322479E1,-2.172118057E1,2.780361165E1
1.090061775E1,-1.289598267E1,-1.574680435E1,-1.528651154E1,2.545477659E1
1.091062775E1,-1.172287216E1,-1.663924850E1,-5.547613678E0,2.109659546E1
1.092063775E1,-1.215532288E1,-1.670541092E1,-1.848056946E0,2.074217787E1
1.093064775E1,-1.342722794E1,-1.555101151E1,-1.140777740E0,2.057731233E1
1.094065775E1,-1.409828247E1,-1.283984940E1,-2.345771942E0,1.921265071E1
1.095066775E1,-1.323368042E1,-9.227710876E0,-4.108206940E0,1.664807225E1
1.096067775E1,-1.044408142E1,-6.506070557E0,-3.773952026E0,1.287052853E1
1.097068775E1,-6.474336548E0,-8.313112793E0,-2.084265747E0,1.074099817E1
1.098069775E1,-3.990701294E0,-1.327783859E1,-6.942562866E-1,1.388195542E1
1.099070775E1,-2.796185303E0,-1.751896912E1,-1.639839935E0,1.781634099E1
1.100071675E1,-4.507875824E0,-2.173899353E1,-2.756817169E0,2.237196516E1
1.101072675E1,-8.399333496E0,-2.147209854E1,-1.253343658E0,2.309048915E1
1.102073675E1,-7.317832489E0,-1.356314529E1,2.932102661E0,1.568779171E1
1.103074675E1,-2.206411743E0,-7.392826538E0,2.633323975E0,8.152087595E0
1.104075675E1,9.321116638E-1,-5.001249847E0,2.948269043E0,5.879933889E0
1.105076675E1,2.300715637E0,-2.938239899E0,2.122735748E0,4.293314943E0
1.106077675E1,4.271816711E0,-1.465751953E0,5.683680725E-1,4.551910486E0
1.107078675E1,5.514382782E0,-1.621428223E0,2.026785278E0,6.094694866E0
1.108079675E1,5.114115143E0,-3.547023926E0,4.011657715E0,7.404657321E0
1.109080675E1,4.239633636E0,-5.764063568E0,3.556903381E0,7.990649777E0
1.110081675E1,3.958218842E0,-8.345595245E0,3.303779755E0,9.809761315E0
1.111082688E1,3.791166229E0,-1.091036179E1,3.357967072E0,1.202850276E1
1.112083687E1,3.595223694E0,-1.307965073E1,3.390748901E0,1.398213412E1
1.113084687E1,3.244802399E0,-1.441562256E1,2.973416748E0,1.507249560E1
1.114085688E1,2.579436035E0,-1.450663330E1,2.544708252E0,1.495230551E1
1.115086687E1,1.373693390E0,-1.374112518E1,2.214045868E0,1.398597705E1
1.116087687E1,3.158432007E-1,-1.267519180E1,2.046394501E0,1.284320733E1
1.117088688E1,-2.118095398E-1,-1.151929550E1,1.927841034E0,1.168142128E1
1.118089687E1,-4.314028931E-1,-1.052356613E1,1.746268616E0,1.067618877E1
1.119090687E1,-4.501139832E-1,-9.729467468E0,1.510658569E0,9.856329394E0
1.120091687E1,-5.995033264E-1,-8.997040558E0,1.123862915E0,9.086760198E0
1.121092688E1,-7.240443420E-1,-9.037755890E0,2.543211365E-1,9.070278440E0
1.122093687E1,-7.888595581E-1,-9.468560028E0,-6.635700989E-1,9.524508055E0
1.123094687E1,-8.791218567E-1,-9.742789764E0,-1.424737244E0,9.885579591E0
1.124095587E1,-8.400531006E-1,-9.791288910E0,-1.910028076E0,1.001115553E1
1.125096588E1,-7.846682739E-1,-9.536069641E0,-1.916165314E0,9.758279460E0
1.126097587E1,-7.596702576E-1,-9.195228424E0,-1.398990784E0,9.332014782E0
1.127098587E1,-9.271719360E-1,-8.894354095E0,-4.605921936E-1,8.954402702E0
1.128099588E1,-1.264420624E0,-8.437803497E0,2.884501648E-1,8.536890000E0
1.129100587E1,-1.550326080E0,-7.911348267E0,7.036866760E-1,8.092472878E0
1.130101587E1,-1.540746002E0,-7.507637787E0,1.058448944E0,7.736849330E0
1.131102587E1,-1.386716309E0,-7.230114899E0,1.221909027E0,7.462613834E0
1.132103588E1,-1.330133972E0,-6.977590027E0,1.361568604E0,7.232557503E0
1.133104587E1,-1.332528992E0,-6.932982788E0,1.422042847E0,7.201672702E0
1.134105587E1,-1.436412964E0,-7.150181122E0,1.333127747E0,7.413879003E0
1.135106588E1,-1.613644409E0,-7.497458954E0,1.492097168E0,7.812943940E0
1.136107587E1,-1.975891113E0,-8.148604889E0,1.721569977E0,8.559655981E0
1.137108587E1,-2.622546387E0,-9.093140717E0,1.143771515E0,9.532637144E0
1.138109588E1,-3.110082550E0,-9.747729492E0,5.263055420E-1,1.024538146E1
1.139110587E1,-3.333418121E0,-1.013766861E1,1.779798889E-1,1.067312878E1
1.140111587E1,-3.485950928E0,-1.042058029E1,-5.806425476E-1,1.100352186E1
1.141112588E1,-3.743415527E0,-1.046369064E1,-2.697839813E0,1.143592241E1
1.142113587E1,-3.963457947E0,-1.026505371E1,-5.296735382E0,1.221211416E1
1.143114587E1,-4.177512817E0,-1.018781433E1,-5.198689270E0,1.217659822E1
1.144115588E1,-4.458777924E0,-1.043510010E1,-2.091600494E0,1.153892574E1
1.145116587E1,-4.554429016E0,-1.078162949E1,9.280700684E-1,1.174085483E1
1.146117587E1,-4.820725250E0,-1.092203751E1,2.188449097E0,1.213752877E1
1.147118487E1,-5.014572144E0,-1.100331848E1,3.061733093E0,1.247369877E1
1.148119487E1,-5.175038452E0,-1.076396622E1,2.873274994E0,1.228412394E1
1.149120488E1,-5.939349060E0,-1.055934174E1,9.632469177E-1,1.215332916E1
1.150121487E1,-6.708150330E0,-1.032822235E1,-6.706054688E-1,1.233374110E1
1.151122487E1,-7.708819427E0,-1.082653610E1,9.006770325E-1,1.332107353E1
1.152123488E1,-8.573122101E0,-1.143846359E1,1.313817902E0,1.435489427E1
1.153124487E1,-9.052425385E0,-1.165880539E1,-8.107141113E-1,1.478280778E1
1.154125487E1,-9.608818359E0,-1.194725555E1,-4.129313049E0,1.587820934E1
1.155126488E1,-1.002495300E1,-1.230950226E1,-7.490423584E0,1.755363136E1
1.156127487E1,-9.439520416E0,-1.225756027E1,-7.417076111E0,1.715707864E1
1.157128487E1,-7.190597076E0,-1.204754700E1,-8.903485107E-1,1.405847771E1
1.158129488E1,-5.470673676E0,-1.192210785E1,2.223326569E0,1.330443937E1
1.159130487E1,-5.057083740E0,-1.230306564E1,2.009571075E0,1.345280254E1
1.160131487E1,-4.895419922E0,-1.347976868E1,1.838027802E0,1.445848007E1
1.161132487E1,-4.494254150E0,-1.473700424E1,2.277364197E0,1.557446635E1
1.162133488E1,-3.787573700E0,-1.581835556E1,2.649190979E0,1.647981493E1
1.163134487E1,-3.033591614E0,-1.674373123E1,2.531984711E0,1.720366706E1
1.164135487E1,-2.423460388E0,-1.736029907E1,2.186203766E0,1.766444539E1
1.165136488E1,-2.029180298E0,-1.727617401E1,1.873653717E0,1.749555199E1
1.166137487E1,-1.429227905E0,-1.637938889E1,1.605561218E0,1.651983352E1
1.167138487E1,-7.511380005E-1,-1.507245667E1,1.074615326E0,1.512937396E1
1.168139488E1,6.990463257E-2,-1.386970779E1,-4.987628174E-1,1.387884885E1
1.169140487E1,1.155147858E0,-1.280033157E1,-2.716999969E0,1.313639767E1
1.170141387E1,1.963766327E0,-1.176837753E1,-4.636009369E0,1.280014339E1
1.171142387E1,1.860930176E0,-1.072310120E1,-5.456752625E0,1.217473242E1
1.172143387E1,1.278641052E0,-9.901908875E0,-4.043391724E0,1.077180296E1
1.173144388E1,8.379574585E-1,-9.335636444E0,-1.237776031E0,9.454542296E0
1.174145387E1,3.472778320E-1,-9.060957642E0,1.642684021E0,9.215202986E0
1.175146387E1,7.943980408E-1,-8.444090424E0,4.025878143E0,9.388366533E0
1.176147388E1,1.089733887E0,-7.667056274E0,6.898554382E0,1.037117758E1
1.177148387E1,4.834945679E-1,-7.043752441E0,7.095544739E0,1.000974378E1
1.178149387E1,9.699829102E-2,-6.560257874E0,6.489904175E0,9.228501950E0
1.179150388E1,-1.422042847E-2,-6.150709534E0,5.409001923E0,8.190771135E0
1.180151387E1,-3.526666260E-1,-5.823190613E0,3.805087280E0,6.965099559E0
1.181152387E1,-1.230291595E0,-5.538482666E0,1.286873932E0,5.817598488E0
1.182153388E1,-2.100282440E0,-5.274731140E0,-6.661148071E-2,5.677887989E0
1.183154387E1,-2.648741913E0,-4.943170624E0,3.089575195E-1,5.616602557E0
1.184155387E1,-2.996019745E0,-4.462669830E0,1.193318481E0,5.505957258E0
1.185156388E1,-3.050805817E0,-3.950734406E0,1.837279358E0,5.318957972E0
1.186157387E1,-1.746118927E0,-3.819906464E0,2.110012207E0,4.700294481E0
1.187158387E1,3.129991150E-1,-4.100273438E0,2.262095947E0,4.693323852E0
1.188159388E1,1.100960541E0,-4.408931580E0,2.253264313E0,5.072276791E0
1.189160387E1,1.808090057E0,-4.596790924E0,2.322869568E0,5.458516235E0
1.190161387E1,2.343975677E0,-4.640649719E0,2.173330536E0,5.634999327E0
1.191162387E1,2.511177979E0,-4.524640961E0,1.698667603E0,5.446454102E0
1.192163287E1,2.523003387E0,-4.295617218E0,9.116043091E-1,5.064473891E0
1.193164288E1,2.290536804E0,-4.161945190E0,-9.235794067E-2,4.751513086E0
1.194165287E1,1.839973755E0,-4.437073059E0,-8.743318176E-1,4.882374103E0
1.195166287E1,1.235530701E0,-5.444777527E0,-1.843566284E0,5.879700254E0
1.196167288E1,3.354524231E-1,-7.365732880E0,-4.035158844E0,8.405299285E0
1.197168287E1,-1.710942078E0,-9.841883698E0,-9.089398499E0,1.350581958E1
1.198169287E1,-6.610253906E0,-1.295256500E1,-1.917557419E1,2.406588960E1
1.199170288E1,-1.207538910E1,-1.566357742E1,-1.947974167E1,2.776009753E1
1.200171287E1,-1.330882416E1,-1.682186874E1,-8.942703552E0,2.323944955E1
1.201172287E1,-1.336884933E1,-1.703397766E1,-2.828518066E0,2.183765193E1
1.202173287E1,-1.496108826E1,-1.637564667E1,-1.638792114E0,2.224143892E1
1.203174287E1,-1.598241440E1,-1.408061920E1,-2.352507935E0,2.142978536E1
1.204175287E1,-1.527064453E1,-1.025158173E1,-3.582500153E0,1.873824484E1
1.205176287E1,-1.261352005E1,-6.725214844E0,-3.728147278E0,1.477255851E1
1.206177288E1,-8.201894073E0,-7.003336487E0,-1.343007202E0,1.086836955E1
1.207178287E1,-4.918322296E0,-1.121003860E1,3.772155762E-2,1.224158007E1
1.208179287E1,-3.242706757E0,-1.495495102E1,1.826202393E-2,1.530248479E1
1.209180288E1,-3.797153778E0,-1.751896912E1,1.121467896E0,1.796080026E1
1.210181287E1,-5.980812836E0,-1.845706833E1,3.287463684E0,1.967843772E1
1.211182179E1,-6.670279083E0,-1.507634857E1,1.894909515E0,1.659456512E1
1.212183179E1,-3.974684601E0,-9.708211670E0,-2.290087738E0,1.073741092E1
1.213184179E1,7.780819702E-1,-6.880891113E0,-7.027885437E-1,6.960315065E0
1.214185179E1,3.929628296E0,-4.672383728E0,-1.764081573E0,6.354929743E0
1.215186079E1,5.270539856E0,-3.377426605E0,-1.949096832E0,6.556262602E0
1.216187079E1,4.807552643E0,-4.185596008E0,2.017654266E0,6.686008159E0
1.217188079E1,4.482578430E0,-6.060447235E0,4.549638977E0,8.804643371E0
1.218189079E1,4.009113007E0,-8.124505005E0,3.708538055E0,9.789475123E0
1.219190079E1,4.093687134E0,-1.024813889E1,3.735182648E0,1.165050275E1
1.220191079E1,3.954177246E0,-1.229573090E1,4.018693085E0,1.352665554E1
1.221192079E1,3.409459991E0,-1.366014359E1,3.855083313E0,1.459745209E1
1.222193079E1,2.820883942E0,-1.377944550E1,3.467838593E0,1.448642153E1
1.223194079E1,1.797611847E0,-1.279539185E1,3.028502197E0,1.327122023E1
1.224195079E1,6.502478027E-1,-1.168994064E1,2.556533661E0,1.198388079E1
1.225196079E1,-1.502874756E-1,-1.076441528E1,2.386337585E0,1.102677785E1
1.226197079E1,-4.861889648E-1,-1.008797195E1,2.250719604E0,1.034742947E1
1.227198079E1,-5.077441406E-1,-9.534872131E0,2.004930725E0,9.756604834E0
1.228199079E1,-3.855981445E-1,-9.046138458E0,1.757944336E0,9.223430773E0
1.229200079E1,-2.001338196E-1,-8.449179840E0,1.934427338E0,8.670103958E0
1.230201079E1,-1.883084106E-1,-8.463699646E0,1.444645844E0,8.588170548E0
1.231202079E1,-2.772235107E-1,-9.127569122E0,4.090992737E-1,9.140937215E0
1.232203079E1,-4.918771362E-1,-9.650581512E0,-4.989125061E-1,9.675979554E0
1.233204079E1,-8.867559814E-1,-9.815239105E0,-1.436113586E0,9.959301035E0
1.234205079E1,-1.192270660E0,-9.563013611E0,-2.489772491E0,9.953477066E0
1.235206079E1,-1.491348724E0,-9.141041107E0,-2.973865814E0,9.727622085E0
1.236207079E1,-1.674567719E0,-8.597521362E0,-2.389181671E0,9.079082535E0
1.237208079E1,-1.798210602E0,-8.234675903E0,-1.112187195E0,8.501788574E0
1.238208979E1,-1.947150879E0,-8.116571503E0,2.395019531E-3,8.346863797E0
1.239209979E1,-1.949845276E0,-8.031997375E0,7.433541870E-1,8.298641689E0
1.240210979E1,-1.799108734E0,-7.727231140E0,1.130598907E0,8.014059347E0
1.241211979E1,-1.728006592E0,-7.545658722E0,1.210832062E0,7.835118800E0
1.242212979E1,-1.636546783E0,-7.481591949E0,1.201850739E0,7.752222176E0
1.243213979E1,-1.546733551E0,-7.591463470E0,1.304986267E0,7.856569955E0
1.244214979E1,-1.676513672E0,-7.849975891E0,1.303489380E0,8.132152492E0
1.245215979E1,-1.678459625E0,-8.272696838E0,1.559756470E0,8.584147013E0
1.246216979E1,-1.820663910E0,-8.869356079E0,2.040257263E0,9.281322321E0
1.247217979E1,-2.477048950E0,-9.422156525E0,1.456471252E0,9.850589504E0
1.248218979E1,-3.199596405E0,-9.659562836E0,8.149053955E-1,1.020826342E1
1.249219979E1,-3.632047119E0,-9.823172607E0,4.734654236E-1,1.048382830E1
1.250220979E1,-3.989503784E0,-1.005264542E1,4.191284180E-2,1.081543235E1
1.251221979E1,-4.790188751E0,-1.041608963E1,-2.047292633E0,1.164612548E1
1.252222979E1,-6.136489105E0,-1.102337677E1,-6.195167084E0,1.405529897E1
1.253223979E1,-6.763834534E0,-1.130434250E1,-6.949298859E0,1.489397098E1
1.254224979E1,-6.342760162E0,-1.113654144E1,-3.427871704E0,1.326662980E1
1.255225979E1,-5.586532745E0,-1.111094467E1,2.912942505E-1,1.243974646E1
1.256226979E1,-5.187911682E0,-1.100855759E1,1.938319244E0,1.232314283E1
1.257227979E1,-5.062622223E0,-1.085707260E1,2.754871216E0,1.229209033E1
1.258228979E1,-5.019362183E0,-1.061143341E1,2.596799927E0,1.202247419E1
1.259229979E1,-5.652246094E0,-1.014215927E1,2.754272461E-2,1.161085868E1
1.260230879E1,-6.193819885E0,-9.668693848E0,-1.887724457E0,1.163660385E1
1.261231879E1,-7.051386566E0,-1.015862503E1,-2.020797729E-2,1.236608763E1
1.262232879E1,-7.825576630E0,-1.060843964E1,-6.990463257E-2,1.318269805E1
1.263233879E1,-8.177943878E0,-1.067909271E1,-2.327958984E0,1.365068424E1
1.264234879E1,-8.528365173E0,-1.096574661E1,-5.451812897E0,1.492323273E1
1.265235879E1,-8.706195374E0,-1.169967041E1,-5.907764740E0,1.573473259E1
1.266236879E1,-7.770042114E0,-1.176957504E1,-1.766626282E0,1.421328321E1
1.267237879E1,-6.419999542E0,-1.149609375E1,1.398242340E0,1.324128571E1
1.268238879E1,-5.854774933E0,-1.186313049E1,1.652862854E0,1.333207449E1
1.269239879E1,-5.538183289E0,-1.301004547E1,1.412911835E0,1.421017513E1
1.270240879E1,-4.955594788E0,-1.432311493E1,2.061812439E0,1.529577103E1
1.271241879E1,-4.202810211E0,-1.580293762E1,2.603086853E0,1.655815546E1
1.272242879E1,-3.347039795E0,-1.719174957E1,2.576891327E0,1.770308724E1
1.273243879E1,-2.406844940E0,-1.810589859E1,2.293231201E0,1.840856800E1
1.274244879E1,-1.582958221E0,-1.816038528E1,2.159559174E0,1.835671665E1
1.275245879E1,-1.154100037E0,-1.720252716E1,2.057621155E0,1.736354493E1
1.276246879E1,-8.707392883E-1,-1.554472458E1,1.780996399E0,1.567062849E1
1.277247879E1,-3.511697388E-1,-1.385743332E1,1.191073151E0,1.391295920E1
1.278248879E1,1.564247131E-1,-1.238299942E1,3.124003601E-1,1.238792708E1
1.279249879E1,5.542973328E-1,-1.130778534E1,-7.385641479E-1,1.134542779E1
1.280250879E1,7.445516968E-1,-1.057835220E1,-1.941313019E0,1.078075085E1
1.281251879E1,4.977149963E-1,-1.006551865E1,-2.673141174E0,1.042631620E1
1.282252879E1,2.604583740E-2,-9.711953888E0,-2.373913422E0,9.997909363E0
1.283253779E1,-1.525328064E-1,-9.611662445E0,-8.571176147E-1,9.651008850E0
1.284254779E1,2.023791504E-1,-9.397757263E0,1.249152374E0,9.482572465E0
1.285255779E1,5.393284607E-1,-8.871152344E0,2.610421600E0,9.262964969E0
1.286256779E1,8.532257080E-1,-8.133636017E0,3.741768951E0,8.993601273E0
1.287257779E1,9.690847778E-1,-7.349716187E0,4.709356842E0,8.782681549E0
1.288258779E1,6.571334839E-1,-6.717730408E0,4.858446808E0,8.316503570E0
1.289259779E1,3.664379883E-1,-6.179000702E0,3.839515686E0,7.283969191E0
1.290260779E1,1.422042847E-2,-5.596262512E0,2.486479340E0,6.123800767E0
1.291261779E1,-6.140231323E-1,-5.092709656E0,1.245709534E0,5.278684333E0
1.292262779E1,-1.096170502E0,-4.714595947E0,6.233038330E-1,4.880318881E0
1.293263779E1,-1.431024170E0,-4.390819244E0,9.250762939E-1,4.709871544E0
1.294264779E1,-1.750010834E0,-4.212390289E0,1.318308563E0,4.748126719E0
1.295265779E1,-2.000589752E0,-4.159250793E0,1.499282227E0,4.852790302E0
1.296266779E1,-1.275647278E0,-4.245770874E0,1.804946594E0,4.786614513E0
1.297267779E1,1.032852173E-1,-4.324357452E0,2.206711121E0,4.855956052E0
1.298268779E1,5.948629761E-1,-4.335284729E0,2.296524353E0,4.941920654E0
1.299269779E1,1.076860657E0,-4.318369904E0,2.267634430E0,4.995008849E0
1.300270779E1,1.478026428E0,-4.259691925E0,1.894310760E0,4.890598192E0
1.301271779E1,1.641785889E0,-4.279450836E0,1.212179260E0,4.741153754E0
1.302272779E1,1.630110168E0,-4.473297729E0,2.874023438E-1,4.769722408E0
1.303273779E1,1.399290161E0,-5.035977631E0,-7.394622803E-1,5.278815029E0
1.304274779E1,7.589218140E-1,-6.143075409E0,-1.645079041E0,6.404656341E0
1.305275779E1,5.149291992E-2,-7.742499390E0,-2.902913361E0,8.268969361E0
1.306276679E1,-1.222657471E0,-9.658964081E0,-5.630241852E0,1.124678184E1
1.307277679E1,-3.872746582E0,-1.230501160E1,-1.266636017E1,1.807894235E1
1.308278679E1,-9.014554138E0,-1.474074646E1,-1.842922623E1,2.526238650E1
1.309279679E1,-1.263836838E1,-1.533905228E1,-1.149504593E1,2.295976831E1
1.310280679E1,-1.334295319E1,-1.507500137E1,-4.335135040E0,2.059328682E1
1.311281800E1,-1.426338913E1,-1.442580139E1,-1.831142120E0,2.036912116E1
1.312282800E1,-1.527573395E1,-1.312605423E1,-1.152453461E0,2.017348498E1
1.313283800E1,-1.529354691E1,-1.071367081E1,-1.603465576E0,1.874156933E1
1.314284800E1,-1.437146439E1,-7.861052856E0,-2.994672546E0,1.665242338E1
1.315285800E1,-1.197839081E1,-5.866151276E0,-2.924468536E0,1.365452648E1
1.316286800E1,-7.566764832E0,-6.908134460E0,-1.470092926E0,1.035081760E1
1.317287800E1,-4.917424164E0,-1.104388412E1,-5.357359314E-1,1.210105161E1
1.318288800E1,-3.605402527E0,-1.485046829E1,-6.602769470E-1,1.529612047E1
1.319289800E1,-3.933819580E0,-1.747316437E1,-9.845027161E-1,1.793754875E1
1.320290800E1,-6.669231262E0,-1.871168884E1,2.863545227E-1,1.986675474E1
1.321291800E1,-7.692802734E0,-1.585008957E1,3.270848236E0,1.791934713E1
1.322292800E1,-4.698878632E0,-1.075453583E1,3.610192566E0,1.227896541E1
1.323293800E1,-1.210382996E0,-7.480244751E0,1.407523041E0,7.707153148E0
1.324294800E1,1.463506622E0,-5.062322845E0,5.107379150E-1,5.294319356E0
1.325295800E1,5.094954987E0,-2.978506165E0,-3.967050476E0,7.111086750E0
1.326296800E1,6.169720001E0,-2.423610077E0,-3.530109100E0,7.510059984E0
1.327297700E1,4.753365326E0,-3.769461365E0,1.700912933E0,6.300509956E0
1.328298700E1,3.882176971E0,-6.095175018E0,3.846401367E0,8.186407027E0
1.329299700E1,3.653751984E0,-8.654852142E0,3.792962494E0,1.013128490E1
1.330300700E1,3.433559875E0,-1.132484985E1,4.044439545E0,1.250596053E1
1.331301700E1,3.057990875E0,-1.367840561E1,3.884272614E0,1.454433436E1
1.332302700E1,2.719993744E0,-1.516062332E1,3.370690613E0,1.576719445E1
1.333303700E1,2.066303101E0,-1.532303558E1,2.963387604E0,1.574314753E1
1.334304700E1,1.077459412E0,-1.396805328E1,2.692600708E0,1.426595703E1
1.335305700E1,1.242416382E-1,-1.224678268E1,2.410736847E0,1.248241861E1
1.336306700E1,-4.153862000E-1,-1.106079895E1,2.159110107E0,1.127721489E1
1.337307700E1,-5.876779175E-1,-1.016910324E1,2.201172638E0,1.042118933E1
1.338308700E1,-5.273533630E-1,-9.290729828E0,2.406695251E0,9.611864769E0
1.339309700E1,-4.031117249E-1,-8.795559540E0,1.277593231E0,8.897000121E0
1.340310700E1,-4.126918030E-1,-8.912167053E0,-2.094145203E-1,8.924174502E0
1.341311700E1,-4.462220764E-1,-9.110953674E0,-1.299447784E0,9.213965245E0
1.342312700E1,-4.887336731E-1,-9.175319824E0,-2.110461273E0,9.427587245E0
1.343313700E1,-4.778063965E-1,-9.161249084E0,-2.530787201E0,9.516389420E0
1.344314700E1,-5.827381897E-1,-9.027577057E0,-2.300416260E0,9.334272670E0
1.345315700E1,-9.907896423E-1,-8.809779968E0,-1.321302338E0,8.963243111E0
1.346316700E1,-1.613345032E0,-8.584348755E0,-1.487905884E-1,8.735906614E0
1.347317700E1,-2.034569092E0,-8.405321045E0,3.995191956E-1,8.657280684E0
1.348318700E1,-2.196083221E0,-8.094866638E0,6.447093201E-1,8.412211214E0
1.349319600E1,-2.004331970E0,-7.735014954E0,9.153465271E-1,8.042739723E0
1.350320600E1,-1.465153198E0,-7.307204590E0,1.476379852E0,7.597473941E0
1.351321600E1,-1.229243774E0,-7.111112366E0,1.654509430E0,7.403807182E0
1.352322600E1,-1.062191162E0,-7.157815247E0,1.730102234E0,7.440149388E0
1.353323600E1,-1.120270386E0,-7.328011322E0,1.570084991E0,7.577593454E0
1.354324600E1,-1.266516266E0,-7.518714752E0,1.541793823E0,7.778962860E0
1.355325600E1,-1.543889465E0,-7.833659821E0,1.688788147E0,8.160994196E0
1.356326600E1,-2.010618896E0,-8.392896881E0,1.908680878E0,8.838912212E0
1.357327600E1,-2.630330200E0,-9.142088928E0,1.716779938E0,9.666631279E0
1.358328600E1,-3.252735901E0,-9.685608673E0,1.240620117E0,1.029225167E1
1.359329600E1,-3.752845917E0,-1.004306534E1,9.108558655E-1,1.075995689E1
1.360330600E1,-4.047133942E0,-1.036010605E1,6.730004883E-1,1.114289101E1
1.361331600E1,-4.357738037E0,-1.061038559E1,4.213737488E-1,1.147814092E1
1.362332600E1,-5.153333588E0,-1.099822906E1,-2.374063110E0,1.237554303E1
1.363333600E1,-7.061864777E0,-1.153022278E1,-9.166338501E0,1.633516859E1
1.364334600E1,-7.307653656E0,-1.105091949E1,-7.966733093E0,1.545941331E1
1.365335600E1,-6.152805176E0,-1.055051010E1,-1.840422821E0,1.235141413E1
1.366336600E1,-5.375022583E0,-1.055051010E1,1.227896576E0,1.190427911E1
1.367337600E1,-5.184618530E0,-1.045171555E1,1.677561493E0,1.178697755E1
1.368338600E1,-5.037025452E0,-1.036295013E1,2.487527161E0,1.178771192E1
1.369339600E1,-4.826114044E0,-1.046114594E1,2.465073853E0,1.178149142E1
1.370340600E1,-5.250930634E0,-1.057401123E1,2.022144928E0,1.197794040E1
1.371341500E1,-5.662275238E0,-1.059571609E1,1.507215729E0,1.210794201E1
1.372342500E1,-5.844745789E0,-1.029005173E1,7.051835632E-1,1.185510446E1
1.373343500E1,-7.074887695E0,-1.097562607E1,9.759704590E-1,1.309469060E1
1.374344500E1,-8.165819092E0,-1.184935913E1,1.266366577E0,1.444616204E1
1.375345500E1,-8.281378784E0,-1.170640640E1,7.267387390E-1,1.435790147E1
1.376346500E1,-7.555837555E0,-1.067804489E1,-3.317551117E0,1.349509056E1
1.377347500E1,-6.797065430E0,-1.007794281E1,-1.186926773E1,1.698954226E1
1.378348500E1,-6.255491638E0,-1.058419006E1,-9.394913177E0,1.547322360E1
1.379349500E1,-6.100563812E0,-1.104792572E1,-4.739144897E-1,1.262925716E1
1.380350500E1,-5.862409058E0,-1.134909943E1,2.415227509E0,1.300012391E1
1.381351500E1,-4.987777863E0,-1.172900940E1,2.732118530E0,1.303503207E1
1.382352500E1,-4.587061157E0,-1.269315445E1,2.754571838E0,1.377479459E1
1.383353500E1,-4.354295197E0,-1.401071457E1,2.400857391E0,1.486688016E1
1.384354500E1,-4.023932190E0,-1.545610886E1,2.077829132E0,1.610592143E1
1.385355500E1,-3.394640808E0,-1.656500290E1,1.967508545E0,1.702333684E1
1.386356500E1,-2.731220398E0,-1.694401474E1,1.785786438E0,1.725538274E1
1.387357500E1,-2.132914581E0,-1.663894913E1,1.602417755E0,1.685145974E1
1.388358500E1,-1.625170441E0,-1.559861252E1,1.478026428E0,1.575253800E1
1.389359500E1,-1.336720276E0,-1.446262482E1,1.250200195E0,1.457797442E1
1.390360500E1,-9.294172668E-1,-1.356868378E1,6.920109558E-1,1.361807163E1
1.391361500E1,-2.984793091E-1,-1.275198212E1,-8.569679260E-1,1.278422981E1
1.392362500E1,4.846920776E-1,-1.182106796E1,-3.460952911E0,1.232683127E1
1.393363500E1,5.402265930E-1,-1.068088898E1,-5.871689758E0,1.220040879E1
1.394364400E1,6.885681152E-2,-9.747280426E0,-5.240302734E0,1.106684190E1
1.395365400E1,-2.505789185E-1,-9.303752747E0,-2.219883728E0,9.568201959E0
1.396366400E1,2.260299683E-2,-9.170978851E0,1.105301514E0,9.237372755E0
1.397367400E1,4.108955383E-1,-8.902137909E0,4.132905579E0,9.823329528E0
1.398368400E1,7.050338745E-1,-8.378377075E0,6.036197662E0,1.035036025E1
1.399369400E1,5.090913391E-1,-7.859406281E0,6.143524475E0,9.988610216E0
1.400370400E1,1.871109009E-2,-7.300917664E0,4.723876648E0,8.695904750E0
1.401371400E1,-4.980143738E-1,-6.636748810E0,3.041974182E0,7.317653996E0
1.402372400E1,-9.880952454E-1,-6.130501556E0,1.831441498E0,6.474068235E0
1.403373400E1,-1.078956299E0,-5.719905396E0,1.437760162E0,5.995716697E0
1.404374400E1,-1.257235565E0,-5.370082855E0,1.488205261E0,5.712546371E0
1.405375400E1,-1.579066315E0,-4.982389069E0,1.731599121E0,5.506004611E0
1.406376400E1,-1.857637024E0,-4.584217072E0,1.757794647E0,5.249352674E0
1.407377400E1,-1.101559296E0,-4.448449402E0,1.639091492E0,4.867109602E0
1.408378400E1,5.297483826E-1,-4.601580963E0,1.808090057E0,4.972360643E0
1.409379400E1,1.245410156E0,-4.637955322E0,1.877395935E0,5.156189632E0
1.410380400E1,1.779798889E0,-4.474495239E0,1.952839050E0,5.196380672E0
1.411381375E1,2.240091705E0,-4.365970917E0,1.937121735E0,5.275618780E0
1.412382375E1,2.459834747E0,-4.195774841E0,1.643432465E0,5.133827400E0
1.413383375E1,2.362088013E0,-4.008514252E0,1.171912994E0,4.798023171E0
1.414384375E1,2.095193024E0,-3.999083862E0,5.516029358E-1,4.548271248E0
1.415385275E1,1.775008850E0,-4.338128815E0,-3.400927734E-1,4.699540523E0
1.416386275E1,1.024768982E0,-5.214855652E0,-9.816586304E-1,5.404491151E0
1.417387275E1,-1.005908203E-1,-6.621330872E0,-1.764979706E0,6.853268883E0
1.418388275E1,-1.372046814E0,-8.238118744E0,-3.507955170E0,9.058413899E0
1.419389275E1,-3.872147827E0,-1.052191956E1,-9.720037079E0,1.483857947E1
1.420390275E1,-1.034184402E1,-1.416055298E1,-2.282558395E1,2.878336814E1
1.421391275E1,-1.415740952E1,-1.621323441E1,-1.560624664E1,2.658676641E1
1.422392275E1,-1.388752075E1,-1.664418823E1,-4.023932190E0,2.204731877E1
1.423393275E1,-1.475017685E1,-1.653222107E1,-4.725672913E-1,2.216089733E1
1.424394275E1,-1.666888687E1,-1.522558823E1,-1.000818787E0,2.259805223E1
1.425395275E1,-1.735999969E1,-1.233674561E1,-3.076552277E0,2.151813318E1
1.426396275E1,-1.596370331E1,-8.324788513E0,-4.732708282E0,1.861559708E1
1.427397275E1,-1.154998169E1,-5.216801605E0,-4.439767456E0,1.342864964E1
1.428398275E1,-6.281088409E0,-6.811136169E0,-1.968556366E0,9.472004101E0
1.429399275E1,-3.189417572E0,-1.191881470E1,-9.071136475E-2,1.233850707E1
1.430400275E1,-1.104702759E0,-1.595816483E1,-3.174897766E-1,1.599950601E1
1.431401275E1,-8.821156311E-1,-1.832249817E1,-1.087039490E0,1.837590058E1
1.432402275E1,-3.553909607E0,-2.000335281E1,-1.546883240E0,2.037540785E1
1.433403275E1,-7.469317474E0,-1.734742584E1,-2.107916565E0,1.900439947E1
1.434404275E1,-5.547463989E0,-1.022119492E1,3.921844482E-1,1.163619314E1
1.435405275E1,-5.685177612E-1,-6.440506897E0,3.027604065E0,7.139308644E0
1.436406175E1,1.559457092E0,-4.043691101E0,3.506607971E0,5.574911982E0
1.437407175E1,2.777623901E0,-2.103874969E0,2.190844116E0,4.115978907E0
1.438408175E1,4.305047607E0,-1.657054138E0,1.939666443E0,5.004155196E0
1.439409175E1,4.235142975E0,-3.176843719E0,3.371588745E0,6.276653782E0
1.440410175E1,3.456911316E0,-5.458997955E0,3.061134338E0,7.149925731E0
1.441411175E1,3.433410187E0,-7.745044098E0,2.692451019E0,8.889505390E0
1.442412175E1,3.556604004E0,-1.043674667E1,2.943179626E0,1.141216103E1
1.443413175E1,3.497476959E0,-1.315374664E1,3.026107178E0,1.394312449E1
1.444414175E1,3.208577728E0,-1.519969208E1,2.827769623E0,1.578993006E1
1.445415175E1,2.513273621E0,-1.581790649E1,2.589315491E0,1.622428010E1
1.446416175E1,1.175355835E0,-1.477203140E1,2.399061127E0,1.501165772E1
1.447417175E1,-1.225950623E-1,-1.314401688E1,2.206711121E0,1.332853267E1
1.448418175E1,-8.780740356E-1,-1.142274628E1,2.411784668E0,1.170755533E1
1.449419175E1,-1.027164001E0,-9.918823700E0,1.964514771E0,1.016353520E1
1.450420175E1,-7.216493225E-1,-9.597741394E0,4.505630493E-1,9.635373614E0
1.451421175E1,-4.508624268E-1,-9.445957031E0,-7.418572998E-1,9.485764778E0
1.452422175E1,-2.038760376E-1,-9.328301697E0,-1.619182892E0,9.469980529E0
1.453423175E1,1.137634277E-2,-9.360784149E0,-2.278412018E0,9.634083798E0
1.454424175E1,2.888992310E-2,-9.452393646E0,-2.440674591E0,9.762452188E0
1.455425175E1,-3.534150696E-1,-9.503138123E0,-2.063908081E0,9.731097212E0
1.456426175E1,-1.080004120E0,-9.220825195E0,-1.073567505E0,9.345724871E0
1.457427175E1,-1.661544800E0,-8.960516510E0,3.158432007E-2,9.113319089E0
1.458428175E1,-2.016756134E0,-8.619525604E0,7.622149658E-1,8.885071671E0
1.459429075E1,-2.085313568E0,-8.015082550E0,1.130748596E0,8.358748312E0
1.460430075E1,-1.830393677E0,-7.391179962E0,1.380878448E0,7.738650240E0
1.461431075E1,-1.496438141E0,-6.879543915E0,1.520687714E0,7.202773265E0
1.462432075E1,-1.223705292E0,-6.663393402E0,1.707798615E0,6.986761938E0
1.463433075E1,-9.711804199E-1,-6.730753326E0,1.717229004E0,7.013922383E0
1.464434075E1,-8.963360596E-1,-6.923702087E0,1.801952820E0,7.210277588E0
1.465435075E1,-1.055006104E0,-7.278614044E0,1.796264648E0,7.570853781E0
1.466436075E1,-1.281934204E0,-7.706723785E0,1.771266632E0,8.010888358E0
1.467437075E1,-1.609153748E0,-8.159083099E0,1.884131927E0,8.527013893E0
1.468438075E1,-2.066003723E0,-8.765771484E0,1.974992981E0,9.219963035E0
1.469439075E1,-2.639012146E0,-9.393865356E0,1.736688538E0,9.910861644E0
1.470440075E1,-3.160527649E0,-9.899214478E0,1.301244049E0,1.047266052E1
1.471441075E1,-3.511398010E0,-1.025143204E1,1.013392639E0,1.088341580E1
1.472442075E1,-3.704197083E0,-1.050051407E1,8.437953186E-1,1.116664060E1
1.473443075E1,-3.917503510E0,-1.080318466E1,3.980223083E-1,1.149843704E1
1.474444075E1,-4.674030304E0,-1.158096725E1,-3.594325562E0,1.299555840E1
1.475445075E1,-5.603896637E0,-1.197120575E1,-9.112899628E0,1.605485485E1
1.476446075E1,-5.462889862E0,-1.101200043E1,-8.118517456E0,1.473151875E1
1.477447075E1,-5.187013550E0,-1.060140427E1,-2.621797943E0,1.209002508E1
1.478448075E1,-4.942721558E0,-1.081890198E1,1.040186920E0,1.193989637E1
1.479449075E1,-5.153034210E0,-1.061607376E1,2.207758942E0,1.200537310E1
1.480449975E1,-5.137616272E0,-1.037507492E1,3.291804657E0,1.203633077E1
1.481450975E1,-5.514532471E0,-1.023002655E1,3.291505280E0,1.207880452E1
1.482451975E1,-5.999374237E0,-1.045336212E1,3.196752319E0,1.246934226E1
1.483452975E1,-5.916296997E0,-1.010952713E1,3.384611664E0,1.219264963E1
1.484453975E1,-7.031627655E0,-1.050530411E1,3.077749786E0,1.301067814E1
1.485454975E1,-8.098908234E0,-1.140149048E1,2.626288605E0,1.422967644E1
1.486455975E1,-7.939789124E0,-1.132260452E1,4.942721558E-1,1.383784410E1
1.487456975E1,-6.857988739E0,-1.049557434E1,-6.747967529E0,1.423812333E1
1.488457975E1,-7.145391083E0,-1.070439011E1,-1.386716309E1,1.891927042E1
1.489458975E1,-8.535849609E0,-1.172017776E1,-9.995015259E0,1.761032724E1
1.490459975E1,-8.278534698E0,-1.196327225E1,-6.435118103E-1,1.456255908E1
1.491460975E1,-6.921905823E0,-1.159608582E1,3.032244415E0,1.384111602E1
1.492461975E1,-5.873785400E0,-1.116558105E1,3.104693756E0,1.299271636E1
1.493462975E1,-5.090913391E0,-1.118563934E1,2.517015839E0,1.254477164E1
1.494463975E1,-5.116360474E0,-1.215831665E1,2.289788361E0,1.338823883E1
1.495464975E1,-5.194647675E0,-1.362167358E1,2.028880920E0,1.471905953E1
1.496465975E1,-4.593797150E0,-1.507455231E1,2.096540222E0,1.589781684E1
1.497466975E1,-3.869603119E0,-1.634376297E1,2.131417694E0,1.693030885E1
1.498467975E1,-3.286715240E0,-1.727692245E1,1.969155121E0,1.769666970E1
1.499468975E1,-2.857557678E0,-1.738439896E1,1.774110718E0,1.770679056E1
1.500469975E1,-2.477647705E0,-1.654718994E1,1.607956238E0,1.680874048E1
1.501470975E1,-1.817819824E0,-1.507679764E1,1.244661713E0,1.523691172E1
1.502471875E1,-1.109792175E0,-1.360924942E1,5.710624695E-1,1.366636092E1
1.503472875E1,-1.576222229E-1,-1.240949432E1,-7.400610352E-1,1.243254135E1
1.504473875E1,1.206341400E0,-1.137275024E1,-3.736679535E0,1.203152034E1
1.505474875E1,2.159858551E0,-1.037163208E1,-7.882458344E0,1.320488131E1
1.506475875E1,1.606758728E0,-9.535620575E0,-7.545658722E0,1.226567156E1
1.507476875E1,8.758287048E-1,-9.229806519E0,-2.185155945E0,9.525298462E0
1.508477875E1,1.417552185E-1,-9.209748230E0,1.397793274E0,9.316296638E0
1.509478875E1,-1.541793823E-2,-9.165889435E0,2.994522858E0,9.642662184E0
1.510479875E1,7.330256653E-1,-8.763825531E0,5.600902863E0,1.042650840E1
1.511480838E1,4.974156189E-1,-8.256829834E0,5.983207855E0,1.020889012E1
1.512481837E1,2.073188782E-1,-7.729326782E0,5.688171387E0,9.598998247E0
1.513482837E1,9.969268799E-2,-7.125482483E0,4.943020935E0,8.672709796E0
1.514483838E1,-7.155120850E-2,-6.646478577E0,4.346062317E0,7.941602780E0
1.515484837E1,-7.297325134E-1,-6.292464752E0,2.671045532E0,6.874744100E0
1.516485837E1,-1.803749084E0,-6.060596924E0,5.019062805E-1,6.343205479E0
1.517486838E1,-2.469414825E0,-5.593717804E0,3.333567810E-1,6.123627617E0
1.518487837E1,-2.758912811E0,-4.958139496E0,1.145118713E0,5.788440552E0
1.519488837E1,-1.912872162E0,-4.471052399E0,1.474583588E0,5.081710954E0
1.520489838E1,2.484832764E-1,-4.460873566E0,1.631307678E0,4.756290745E0
1.521490837E1,1.319206696E0,-4.564607849E0,1.853595428E0,5.100173246E0
1.522491837E1,1.948049011E0,-4.538562012E0,2.303410034E0,5.449691539E0
1.523492737E1,2.315983887E0,-4.448000336E0,2.519261169E0,5.612055344E0
1.524493737E1,2.491868134E0,-4.334536285E0,2.135159912E0,5.436590793E0
1.525494738E1,2.473905487E0,-4.254003754E0,1.462758179E0,5.133850191E0
1.526495737E1,2.241139526E0,-4.177662506E0,6.646179199E-1,4.787200369E0
1.527496737E1,1.723216553E0,-4.367018738E0,-2.448907471E-1,4.701095555E0
1.528497738E1,5.945635986E-1,-4.868176575E0,-1.125210114E0,5.031773727E0
1.529498737E1,-6.030958557E-1,-5.817951508E0,-2.253264313E0,6.268132451E0
1.530499737E1,-1.590292969E0,-7.257807312E0,-4.341421967E0,8.605390369E0
1.531500738E1,-3.296295319E0,-9.113348694E0,-8.320597229E0,1.277305858E1
1.532501737E1,-7.366331635E0,-1.146346161E1,-1.506512192E1,2.031333779E1
1.533502737E1,-1.210787155E1,-1.375489655E1,-1.537632477E1,2.392131050E1
1.534503738E1,-1.386057678E1,-1.537482788E1,-8.373736725E0,2.232980940E1
1.535504737E1,-1.461934891E1,-1.637579636E1,-3.439547424E0,2.221986848E1
1.536505737E1,-1.631083145E1,-1.620485184E1,-2.419418793E0,2.311912699E1
1.537506738E1,-1.674672501E1,-1.404873550E1,-3.068020020E0,2.207334398E1
1.538507737E1,-1.533426224E1,-1.017628830E1,-3.689826965E0,1.876995645E1
1.539508737E1,-1.148875900E1,-6.453230438E0,-3.867058411E0,1.373280406E1
1.540509737E1,-6.799909515E0,-6.194867706E0,-2.374362488E0,9.500144869E0
1.541510738E1,-4.034260712E0,-9.348509674E0,-1.269210663E0,1.026064269E1
1.542511737E1,-2.282453613E0,-1.303624100E1,-1.037791901E0,1.327517178E1
1.543512737E1,-2.161355438E0,-1.575129501E1,-5.885760498E-1,1.590978233E1
1.544513637E1,-4.568499756E0,-1.888981842E1,6.497987366E-1,1.944527368E1
1.545514638E1,-7.723937988E0,-1.978375946E1,1.749861145E0,2.131005327E1
1.546515637E1,-7.291337585E0,-1.415621201E1,4.864883423E-1,1.593105813E1
1.547516637E1,-2.152972870E0,-8.503816223E0,2.110610962E-2,8.772150706E0
1.548517638E1,2.364632721E0,-5.705535278E0,1.883533173E0,6.456958876E0
1.549518637E1,4.542304230E0,-3.213667145E0,-1.463955688E-1,5.566113177E0
1.550519637E1,6.237379303E0,-2.077529755E0,-1.048270111E0,6.657319331E0
1.551520637E1,6.341862030E0,-3.059637451E0,2.115251312E0,7.352202626E0
1.552521638E1,5.269941101E0,-5.388793945E0,3.717070312E0,8.404046115E0
1.553522637E1,4.726271667E0,-7.682174835E0,2.943029938E0,9.487617155E0
1.554523637E1,4.667893066E0,-1.014141083E1,3.034489746E0,1.156916450E1
1.555524638E1,4.524042206E0,-1.268073029E1,3.180286560E0,1.383409199E1
1.556525637E1,4.137396240E0,-1.476544510E1,2.990630951E0,1.562306916E1
1.557526637E1,3.202290802E0,-1.568168976E1,2.725681915E0,1.623574458E1
1.558527638E1,1.603764954E0,-1.486603592E1,2.510130157E0,1.516152497E1
1.559528637E1,4.805007935E-2,-1.344504089E1,2.362686768E0,1.365114362E1
1.560529637E1,-9.051676941E-1,-1.231294510E1,2.338137817E0,1.256562112E1
1.561530638E1,-1.370400238E0,-1.106394241E1,2.885250092E0,1.151579292E1
1.562531637E1,-1.550176392E0,-1.007839188E1,2.470612335E0,1.049194715E1
1.563532637E1,-1.566941528E0,-9.890981598E0,1.032253418E0,1.006739141E1
1.564533638E1,-1.427731018E0,-9.787546692E0,-3.652404785E-2,9.891199124E0
1.565534537E1,-1.392254791E0,-9.523196411E0,-1.095571747E0,9.686584576E0
1.566535538E1,-1.412911835E0,-9.289083252E0,-2.124831390E0,9.633187217E0
1.567536537E1,-1.333277435E0,-9.093140717E0,-2.804268494E0,9.608681418E0
1.568537537E1,-1.368903351E0,-8.908574524E0,-2.747237091E0,9.422521322E0
1.569538538E1,-1.670077057E0,-8.664581909E0,-1.836680603E0,9.013186599E0
1.570539537E1,-2.130669250E0,-8.557554474E0,-5.287005615E-1,8.834648511E0
1.571540537E1,-2.406994629E0,-8.375532990E0,6.529421997E-1,8.738965014E0
1.572541538E1,-2.376308441E0,-7.879314880E0,1.506916351E0,8.366674470E0
1.573542537E1,-1.942510529E0,-7.152875519E0,1.989961853E0,7.674433107E0
1.574543537E1,-1.647923126E0,-6.765630798E0,1.760339355E0,7.182492978E0
1.575544538E1,-1.525477753E0,-6.742429047E0,1.544188843E0,7.083216148E0
1.576545537E1,-1.419198761E0,-6.725364532E0,1.469494171E0,7.028802625E0
1.577546537E1,-1.341210938E0,-6.739435272E0,1.496737518E0,7.032713400E0
1.578547538E1,-1.285826111E0,-6.899452515E0,1.643133087E0,7.208028866E0
1.579548537E1,-1.517843628E0,-7.393125916E0,1.533111877E0,7.701466880E0
1.580549537E1,-2.084864502E0,-8.200995941E0,1.243613892E0,8.552752185E0
1.581550537E1,-2.689756622E0,-9.090296631E0,1.009351044E0,9.533471196E0
1.582551538E1,-3.183130646E0,-9.803563385E0,8.710386658E-1,1.034412317E1
1.583552537E1,-3.486100616E0,-1.033780243E1,7.358697510E-1,1.093455810E1
1.584553537E1,-3.560046844E0,-1.067579956E1,4.628375244E-1,1.126325212E1
1.585554538E1,-3.878135376E0,-1.102831650E1,-1.435215454E0,1.177809586E1
1.586555438E1,-4.123774567E0,-1.123368942E1,-5.565875702E0,1.319773719E1
1.587556437E1,-3.657494202E0,-1.064705933E1,-8.030201111E0,1.382827777E1
1.588557437E1,-4.053720245E0,-1.054347473E1,-5.694757690E0,1.265020839E1
1.589558438E1,-5.186863861E0,-1.103610031E1,-6.475534058E-1,1.221140419E1
1.590559437E1,-5.562432861E0,-1.111708191E1,2.168989563E0,1.261882266E1
1.591560437E1,-6.113736420E0,-1.074750046E1,3.245101776E0,1.278347467E1
1.592561437E1,-6.601721649E0,-1.070049820E1,3.021766205E0,1.293114308E1
1.593562438E1,-6.838080139E0,-1.076052338E1,2.315684509E0,1.295803218E1
1.594563437E1,-7.163952484E0,-1.042372375E1,2.185754700E0,1.283564395E1
1.595564437E1,-8.164771271E0,-1.108400070E1,2.765798492E0,1.404165954E1
1.596565438E1,-8.818611603E0,-1.151734955E1,1.574276276E0,1.459094229E1
1.597566437E1,-8.857231293E0,-1.098131424E1,-2.367027740E0,1.430533568E1
1.598567437E1,-9.065597992E0,-1.110241241E1,-7.108417969E0,1.599931981E1
1.599568438E1,-9.565857697E0,-1.194515991E1,-8.700058136E0,1.760350790E1
1.600569437E1,-9.116342468E0,-1.230650848E1,-4.496499481E0,1.596171540E1
1.601570437E1,-7.643854523E0,-1.208347229E1,4.357438660E-1,1.430484838E1
1.602571438E1,-6.566395111E0,-1.195294373E1,2.081870728E0,1.379581800E1
1.603572437E1,-5.454507294E0,-1.226339813E1,2.334844666E0,1.362329194E1
1.604573437E1,-4.927303619E0,-1.327993423E1,2.001338196E0,1.430525529E1
1.605574438E1,-4.543950806E0,-1.459090805E1,2.275567932E0,1.545057591E1
1.606575437E1,-3.807781677E0,-1.591894638E1,2.449057159E0,1.655022466E1
1.607576338E1,-3.191662903E0,-1.703906708E1,2.063009949E0,1.745773551E1
1.608577337E1,-2.387684784E0,-1.768272858E1,2.176174622E0,1.797541834E1
1.609578337E1,-1.683549042E0,-1.752331009E1,2.014361115E0,1.771887086E1
1.610579338E1,-1.211430817E0,-1.664044601E1,1.834285583E0,1.678501152E1
1.611580337E1,-6.691085815E-1,-1.542512329E1,1.496737518E0,1.551200690E1
1.612581337E1,8.158035278E-2,-1.418001251E1,2.805166626E-1,1.418302153E1
1.613582338E1,1.204545135E0,-1.298908905E1,-2.158511353E0,1.322219855E1
1.614583337E1,2.162852325E0,-1.180430283E1,-4.489913177E0,1.281322815E1
1.615584337E1,2.208507385E0,-1.059736267E1,-5.472320251E0,1.212962858E1
1.616585338E1,1.505569153E0,-9.610015869E0,-3.743116150E0,1.042257463E1
1.617586337E1,8.364605713E-1,-9.157057800E0,-9.934840393E-1,9.248696361E0
1.618587337E1,7.509883118E-1,-9.090146942E0,1.400038605E0,9.227939259E0
1.619588338E1,1.041234741E0,-8.683143311E0,4.030668182E0,9.629508478E0
1.620589337E1,1.207987976E0,-7.946824493E0,6.240672455E0,1.017630813E1
1.621590337E1,8.102650452E-1,-7.410040741E0,6.468199310E0,9.869287489E0
1.622591337E1,3.936813354E-1,-6.841073914E0,5.507796478E0,8.791535664E0
1.623592338E1,1.291813660E-1,-6.211183777E0,4.978796539E0,7.961401052E0
1.624593337E1,-2.580633545E-1,-5.713019714E0,3.609144745E0,6.762478594E0
1.625594337E1,-9.550140381E-1,-5.451513519E0,1.631756744E0,5.770067724E0
1.626595338E1,-1.607956238E0,-5.293741608E0,1.064586182E0,5.634054243E0
1.627596337E1,-2.065704346E0,-4.848567352E0,1.610201569E0,5.510761191E0
1.628597237E1,-2.542612610E0,-4.360731812E0,2.053130493E0,5.449422505E0
1.629598237E1,-2.720442810E0,-3.934717712E0,1.988764343E0,5.180540143E0
1.630599238E1,-1.721420288E0,-3.841910706E0,1.828597412E0,4.589916576E0
1.631600237E1,4.966671753E-1,-4.221521301E0,1.672771454E0,4.567940971E0
1.632601237E1,1.657054138E0,-4.562063141E0,1.350491638E0,5.038062741E0
1.633602237E1,2.518512726E0,-4.688849487E0,1.197509766E0,5.455478485E0
1.634603238E1,3.114573212E0,-4.654271393E0,1.185983734E0,5.724453328E0
1.635604237E1,3.313060455E0,-4.548890533E0,9.801617432E-1,5.712223009E0
1.636605237E1,3.110232239E0,-4.446054382E0,2.576142883E-1,5.432063077E0
1.637606238E1,2.622396698E0,-4.635260925E0,-5.104385376E-1,5.350061288E0
1.638607237E1,1.625020752E0,-5.171296234E0,-1.413061523E0,5.601762228E0
1.639608237E1,3.881428528E-1,-6.243815918E0,-2.641407166E0,6.790649741E0
1.640609238E1,-1.149309998E0,-7.795788574E0,-4.845274200E0,9.250508907E0
1.641610237E1,-3.706891479E0,-9.282197571E0,-8.620723114E0,1.319913267E1
1.642611237E1,-6.946903839E0,-1.062909668E1,-1.262085480E1,1.790316020E1
1.643612238E1,-1.047895889E1,-1.236339020E1,-1.377570328E1,2.127044892E1
1.644613237E1,-1.252475464E1,-1.405472305E1,-1.057730438E1,2.159361218E1
1.645614237E1,-1.362017670E1,-1.559516968E1,-5.874384155E0,2.152270707E1
1.646615238E1,-1.516122208E1,-1.654748932E1,-2.556533661E0,2.258800394E1
1.647616237E1,-1.666020493E1,-1.567121155E1,-2.063009949E0,2.296530665E1
1.648617138E1,-1.633463196E1,-1.254481293E1,-3.195405121E0,2.084234023E1
1.649618137E1,-1.374950775E1,-8.726702728E0,-3.487597504E0,1.665435800E1
1.650619137E1,-8.569080505E0,-8.079448700E0,-2.791395264E0,1.210365728E1
1.651620138E1,-4.902455292E0,-1.127006378E1,-1.911225586E0,1.243789326E1
1.652621137E1,-3.532504120E0,-1.443253738E1,-1.598226471E0,1.494426474E1
