"Time (s)","Acceleration x (m/s^2)","Acceleration y (m/s^2)","Acceleration z (m/s^2)","Absolute acceleration (m/s^2)"
1.349916682E-3,-4.029620361E0,5.826783142E0,6.793323212E0,9.815216875E0
1.136091677E-2,-3.305126953E0,5.427413635E0,6.863976288E0,9.353868367E0
2.137291664E-2,-3.059936829E0,4.663402405E0,6.963668976E0,8.922063718E0
3.138383338E-2,-2.987637177E0,4.390819244E0,6.974147186E0,8.766070871E0
4.139483348E-2,-2.976859589E0,4.369264069E0,7.125632172E0,8.872812145E0
5.140583357E-2,-2.877466278E0,4.481231232E0,7.399562531E0,9.116730290E0
6.141683320E-2,-2.590513000E0,4.541406097E0,7.613018646E0,9.235430681E0
7.142883353E-2,-2.477348328E0,4.571044464E0,7.585326233E0,9.196133769E0
8.143983362E-2,-2.612816620E0,4.713248749E0,7.474406891E0,9.214569053E0
9.145083325E-2,-3.054248657E0,4.761747894E0,7.508086853E0,9.400747101E0
1.014618333E-1,-3.177891541E0,4.630919952E0,7.414830780E0,9.301834752E0
1.114728334E-1,-3.203638000E0,4.540807343E0,7.607330475E0,9.420918464E0
1.214848333E-1,-3.095413055E0,4.527784424E0,8.084687805E0,9.769574744E0
1.314958334E-1,-2.775677948E0,4.319268036E0,8.584648132E0,1.000283200E1
1.415068335E-1,-2.267784119E0,4.227658539E0,9.244925079E0,1.041559318E1
1.515178336E-1,-2.012415161E0,4.276606750E0,9.580826569E0,1.068323068E1
1.615288332E-1,-2.454895020E0,4.211043091E0,9.798024902E0,1.094352253E1
1.715408335E-1,-1.970502319E0,4.478536835E0,9.642648010E0,1.081299368E1
1.815518336E-1,-1.746867371E0,4.295018463E0,9.409582672E0,1.048994639E1
1.915628333E-1,-1.621727600E0,4.052522736E0,9.348958740E0,1.031775026E1
2.015738334E-1,-1.628313904E0,3.684587860E0,9.502239990E0,1.032086037E1
2.115848335E-1,-9.741741943E-1,3.844605103E0,9.848170624E0,1.061680123E1
2.215968333E-1,-5.007087708E-1,3.514242096E0,1.012269974E1,1.072705257E1
2.316078334E-1,3.555107117E-1,2.975512390E0,1.046249313E1,1.088318999E1
2.416188335E-1,1.651066589E-1,2.681823120E0,1.124686203E1,1.156336201E1
2.516298336E-1,1.335223389E-1,2.834804993E0,1.097308136E1,1.133412820E1
2.616408332E-1,1.354682922E0,3.074606323E0,1.054646851E1,1.106871121E1
2.716528336E-1,-4.508624268E-1,3.027304688E0,9.363628235E0,9.851161572E0
2.816638332E-1,-5.517975311E0,4.137246552E0,7.904911652E0,1.049059049E1
2.916748333E-1,-2.842888184E0,4.618645477E0,8.438402252E0,1.003097861E1
3.016858334E-1,1.673519897E-1,5.003046112E0,9.333391113E0,1.059106542E1
3.116968335E-1,9.834548950E-2,5.586083679E0,9.444011078E0,1.097284594E1
3.217088333E-1,1.076411591E0,4.575684814E0,9.382489014E0,1.049412471E1
3.317198334E-1,1.086740112E0,3.420986023E0,9.983489227E0,1.060915673E1
3.417308335E-1,1.220561829E0,2.648442535E0,1.100436630E1,1.138420383E1
3.517418336E-1,1.257085876E0,2.576891327E0,1.198752182E1,1.232563642E1
3.617528332E-1,1.045426025E0,2.766846313E0,1.189336761E1,1.225563329E1
3.717638333E-1,1.012943573E0,2.756966858E0,1.115031281E1,1.153067199E1
3.817758332E-1,8.298742676E-1,2.722538452E0,1.014185989E1,1.053367120E1
3.917868333E-1,8.900491333E-1,2.744991760E0,9.760602722E0,1.017823819E1
4.017978334E-1,1.132993927E0,2.933599548E0,9.870474243E0,1.035934087E1
4.118088335E-1,1.446292419E0,2.793640594E0,1.003049149E1,1.051222854E1
4.218198336E-1,2.317181396E0,3.237467651E0,1.034618500E1,1.108575980E1
4.318318334E-1,2.789449310E0,3.430566101E0,1.027628036E1,1.118712427E1
4.418428335E-1,3.097059631E0,3.096909943E0,9.794881439E0,1.072950754E1
4.518538336E-1,3.161425781E0,2.393223267E0,9.770631866E0,1.054454255E1
4.618648333E-1,3.020718384E0,1.780247955E0,1.000848724E1,1.060489695E1
4.718758333E-1,2.421813812E0,1.672023010E0,9.935439148E0,1.036213270E1
4.818878332E-1,1.555415497E0,1.426084442E0,9.244026947E0,9.481828326E0
4.918988333E-1,1.226399689E0,1.026864624E0,8.257877655E0,8.411364367E0
5.019098334E-1,1.586101685E0,1.308429108E0,8.006400604E0,8.266205654E0
5.119208335E-1,2.071991272E0,1.767225037E0,8.102800140E0,8.548192925E0
5.219318336E-1,2.310146027E0,1.956431580E0,8.096064148E0,8.643532488E0
5.319438335E-1,1.536405029E0,1.913470917E0,7.810907135E0,8.187318342E0
5.419548335E-1,1.447789307E0,1.733096008E0,7.755372620E0,8.077469908E0
5.519658332E-1,1.922003174E0,1.900298309E0,7.774981842E0,8.231377315E0
5.619768333E-1,1.850901031E0,2.075733490E0,7.542215881E0,8.038627031E0
5.719878334E-1,1.491797791E0,1.893861694E0,6.717131653E0,7.136668019E0
5.819998332E-1,2.135309601E0,1.753004608E0,5.741011505E0,6.371168288E0
5.920108333E-1,3.035687256E0,1.979783020E0,5.897885284E0,6.922426507E0
6.020218334E-1,3.249442749E0,2.377805328E0,6.483916626E0,7.632431537E0
6.120328335E-1,3.154091034E0,2.450554047E0,6.437962189E0,7.576335693E0
6.220438336E-1,3.440894623E0,2.432890778E0,6.550677795E0,7.789100906E0
6.320558335E-1,3.581302643E0,2.340682526E0,6.555018768E0,7.827694064E0
6.420668336E-1,3.573818207E0,2.199675751E0,6.310277710E0,7.578281782E0
6.520778332E-1,3.792812805E0,2.355052643E0,6.325845337E0,7.742610745E0
6.620888333E-1,3.664080505E0,2.310146027E0,6.784341888E0,8.049195952E0
6.720998334E-1,3.223995667E0,1.960473175E0,7.122788086E0,8.060503287E0
6.821118332E-1,2.855462036E0,1.868713989E0,6.666836243E0,7.489490029E0
6.921228333E-1,2.788251801E0,1.847009125E0,4.996759186E0,6.012769177E0
7.021338334E-1,2.933898926E0,2.142344971E0,3.431613922E0,4.997337190E0
7.121448335E-1,3.124752045E0,2.590513000E0,4.646038513E0,6.169319801E0
7.221558336E-1,3.352877655E0,2.236499176E0,6.563850403E0,7.702457351E0
7.321678335E-1,3.268752594E0,1.569486237E0,7.533983002E0,8.361156047E0
7.421788336E-1,3.534150696E0,1.630858612E0,7.898475037E0,8.805443138E0
7.521898332E-1,3.651057587E0,1.682351532E0,7.810607758E0,8.784424951E0
7.622008333E-1,3.331023102E0,1.436712341E0,7.584877167E0,8.407747552E0
7.722118334E-1,2.923420715E0,1.194515991E0,7.334447937E0,7.985448245E0
7.822238333E-1,2.019899597E0,1.402283936E0,6.637347565E0,7.078190257E0
7.922348334E-1,1.465901642E0,1.702709198E0,5.652545471E0,6.082709638E0
8.022458334E-1,2.015858002E0,1.960772552E0,4.735702057E0,5.507738779E0
8.122568335E-1,3.170407104E0,2.494113464E0,4.800068207E0,6.269987079E0
8.222678336E-1,3.649261322E0,2.923271027E0,5.564528503E0,7.268190914E0
8.322798335E-1,3.414250031E0,2.883304138E0,6.648873596E0,8.011121402E0
8.422908336E-1,2.921325073E0,2.326761475E0,7.526797943E0,8.402419081E0
8.523018332E-1,2.669398956E0,1.626966705E0,8.360564117E0,8.925902969E0
8.623128333E-1,2.422412567E0,1.557062073E0,9.048982544E0,9.496136584E0
8.723238334E-1,2.434687042E0,1.972897339E0,9.394314423E0,9.903189808E0
8.823358333E-1,2.301015015E0,2.588117981E0,9.071286163E0,9.709853626E0
8.923468334E-1,2.453996887E0,2.978206787E0,8.204887848E0,9.067083378E0
9.023578335E-1,3.254831543E0,3.391946411E0,7.764952698E0,9.077098613E0
9.123688336E-1,3.716172180E0,3.632047119E0,8.336164856E0,9.823102690E0
9.223798332E-1,4.111350403E0,3.597319336E0,1.002615051E1,1.141786331E1
9.323918335E-1,4.261338501E0,3.488944702E0,1.203422470E1,1.323458746E1
9.424028336E-1,3.623365173E0,2.460433502E0,1.345028000E1,1.414540704E1
9.524138332E-1,3.588637390E0,2.242486725E0,1.465287918E1,1.525168625E1
9.624248333E-1,4.271966400E0,2.801424408E0,1.580398544E1,1.660914301E1
9.724358334E-1,4.965623932E0,2.978655853E0,1.642010422E1,1.741119279E1
9.824478333E-1,5.685776367E0,2.399659882E0,1.607641891E1,1.722026903E1
9.924588334E-1,5.195246429E0,1.920356598E0,1.516361710E1,1.614353240E1
1.002469833E0,5.194947052E0,1.775607605E0,1.459629684E1,1.559461891E1
1.012480834E0,5.632636871E0,2.000889130E0,1.382390305E1,1.506089144E1
1.022491833E0,5.231471100E0,2.566413116E0,1.349428848E1,1.469865939E1
1.032501958E0,4.430636444E0,3.060086517E0,1.363469650E1,1.465945488E1
1.042513958E0,4.424798584E0,2.566263428E0,1.313024551E1,1.409141220E1
1.052524958E0,4.920567627E0,2.245630188E0,1.170431076E1,1.289363142E1
1.062535958E0,5.026397552E0,3.308569794E0,1.113699051E1,1.265874654E1
1.072546958E0,4.624483337E0,2.929108887E0,1.067115921E1,1.199329662E1
1.082557959E0,4.780758362E0,2.526446228E0,9.693242798E0,1.109943859E1
1.092569958E0,4.730762329E0,2.712060242E0,8.987460480E0,1.051236552E1
1.102580959E0,4.855602722E0,2.620600433E0,8.589138794E0,1.020870852E1
1.112591959E0,5.183421021E0,2.248025208E0,8.499026184E0,1.020563163E1
1.122602958E0,5.276826782E0,1.711391144E0,9.088799744E0,1.064800645E1
1.132613958E0,5.005141754E0,1.179247742E0,9.352700958E0,1.067310098E1
1.142625958E0,4.710105286E0,6.418652344E-1,8.968599701E0,1.015051050E1
1.152636958E0,4.540957031E0,1.315763855E-1,8.616382141E0,9.740618271E0
1.162647958E0,4.450245667E0,4.221221924E-2,8.258326721E0,9.381174159E0
1.172658958E0,4.205803986E0,-6.391708374E-2,7.546407166E0,8.639510036E0
1.182669959E0,3.674858093E0,-4.245172119E-1,6.243666229E0,7.257283572E0
1.192681958E0,3.276536407E0,-7.432044983E-1,4.632566528E0,5.722649421E0
1.202692959E0,3.617227936E0,-6.286926270E-2,3.276386719E0,4.880881110E0
1.212703959E0,3.564687195E0,7.979905701E-1,3.566483459E0,5.105251024E0
1.222714958E0,4.209246826E0,8.646020508E-1,3.923940125E0,5.819158157E0
1.232725958E0,4.285288696E0,-9.325607300E-2,4.532424774E0,6.238210500E0
1.242737958E0,4.509073334E0,-1.210682373E0,5.073250122E0,6.894589251E0
1.252748958E0,4.853207703E0,-2.001038818E0,4.964276733E0,7.225083034E0
1.262759958E0,5.613776093E0,-2.560275879E0,4.632117462E0,7.715309895E0
1.272770958E0,6.242319031E0,-2.695744171E0,4.154760132E0,7.968413598E0
1.282781959E0,5.933960266E0,-2.478695526E0,3.709585876E0,7.424071883E0
1.292793958E0,5.161566467E0,-1.767075348E0,3.167563019E0,6.308548102E0
1.302804959E0,5.491181030E0,-1.516795807E0,2.976410522E0,6.427500154E0
1.312815959E0,6.749763794E0,-1.832788696E0,2.907703400E0,7.574507558E0
1.322826958E0,7.168742523E0,-1.794767761E0,2.793490906E0,7.900357721E0
1.332837958E0,7.063661041E0,-1.615440674E0,2.759062500E0,7.753539950E0
1.342849958E0,6.820117493E0,-1.651815033E0,2.771636353E0,7.544830256E0
1.352860958E0,7.417375488E0,-1.830842743E0,2.401007080E0,8.008388058E0
1.362871958E0,7.509733429E0,-2.053729248E0,2.456990662E0,8.163988187E0
1.372882959E0,7.555837555E0,-2.278412018E0,2.517315216E0,8.283641613E0
1.382893959E0,7.651488647E0,-2.557431793E0,2.686762848E0,8.503201191E0
1.392905958E0,8.205636292E0,-2.592009888E0,2.993774414E0,9.111183647E0
1.402916959E0,9.464967499E0,-2.240091705E0,3.301085358E0,1.027135751E1
1.412927958E0,1.022194336E1,-1.800156555E0,3.110681305E0,1.083536007E1
1.422938958E0,1.019829254E1,-1.525477753E0,2.640359344E0,1.064442345E1
1.432949958E0,1.009770172E1,-1.716330872E0,2.035766602E0,1.044287879E1
1.442961958E0,1.012449600E1,-2.063758392E0,1.762135620E0,1.048187197E1
1.452972958E0,1.029229706E1,-2.215093689E0,1.888921967E0,1.069607615E1
1.462983958E0,1.072804092E1,-2.168540497E0,2.212249603E0,1.116635474E1
1.472994959E0,1.104792572E1,-2.162852325E0,2.194586334E0,1.146955980E1
1.483005959E0,1.108355164E1,-2.399659882E0,2.085463257E0,1.153050916E1
1.493016958E0,1.114193024E1,-2.521656189E0,1.751657410E0,1.155723423E1
1.503028959E0,1.129581024E1,-2.513872375E0,1.335971832E0,1.164902159E1
1.513039958E0,1.152318741E1,-2.493664398E0,1.396595764E0,1.187234981E1
1.523050958E0,1.175056458E1,-2.654280396E0,1.667083282E0,1.216142010E1
1.533061958E0,1.194381271E1,-2.906805267E0,1.772763519E0,1.241961632E1
1.543072958E0,1.225366837E1,-3.117566986E0,1.957629089E0,1.279468343E1
1.553084958E0,1.255229736E1,-3.247796173E0,2.159559174E0,1.314427803E1
1.563095958E0,1.277727951E1,-3.029100952E0,2.417772217E0,1.335215139E1
1.573106959E0,1.266261795E1,-2.974763947E0,2.432441711E0,1.323283366E1
1.583117959E0,1.242955261E1,-2.796185303E0,1.767823792E0,1.286225608E1
1.593128958E0,1.263582367E1,-2.850522308E0,2.278262329E-1,1.295536267E1
1.603140959E0,1.207239532E1,-2.946173401E0,-1.839674377E-1,1.242805337E1
1.613151958E0,1.144894180E1,-2.790048065E0,2.389031982E-1,1.178642063E1
1.623162958E0,1.148741180E1,-2.580184479E0,8.855584717E-1,1.180687070E1
1.633173958E0,1.159189453E1,-2.532284088E0,1.767524414E0,1.199619207E1
1.643184958E0,1.199964661E1,-2.715054016E0,1.989662476E0,1.246281645E1
1.653196958E0,1.241533218E1,-3.149899750E0,1.913919983E0,1.295088535E1
1.663207958E0,1.293909302E1,-3.505859528E0,1.274000702E0,1.346604088E1
1.673218959E0,1.384051849E1,-3.710184631E0,3.564088440E-1,1.433361257E1
1.683229958E0,1.438748108E1,-3.613785095E0,6.750961304E-2,1.483454118E1
1.693240958E0,1.484148697E1,-3.611090698E0,3.619473267E-1,1.527876688E1
1.703252959E0,1.503862701E1,-2.911595306E0,7.991880798E-1,1.533872196E1
1.713263958E0,1.456037155E1,-2.243085480E0,1.692680054E0,1.482905991E1
1.723274958E0,1.365729950E1,-1.984273682E0,2.501448212E0,1.402556291E1
1.733285958E0,1.284598663E1,-2.009421387E0,3.432062988E0,1.344753521E1
1.743296959E0,1.211520630E1,-2.040556641E0,4.483775940E0,1.307846863E1
1.753307959E0,1.174682236E1,-2.031275940E0,5.311404877E0,1.305085971E1
1.763319958E0,1.140987305E1,-1.878294067E0,5.332211609E0,1.273364332E1
1.773330959E0,1.117082016E1,-1.678160248E0,4.548740845E0,1.217762243E1
1.783341958E0,1.111663284E1,-1.455273743E0,3.325334930E0,1.169423789E1
1.793352958E0,1.097427887E1,-1.312171326E0,1.960922241E0,1.122505262E1
1.803363958E0,1.079016174E1,-1.420845337E0,6.325845337E-1,1.090167671E1
1.813375958E0,1.033525772E1,-1.283730469E0,-4.111949158E-1,1.042279220E1
1.823386958E0,9.949659576E0,-1.269659729E0,-9.569599915E-1,1.007588874E1
1.833397958E0,9.263336792E0,-1.185983734E0,-8.746311951E-1,9.379815865E0
1.843408959E0,8.420140228E0,-1.339863739E0,-4.924758911E-2,8.526219656E0
1.853419959E0,7.764054565E0,-1.664388885E0,7.548802185E-1,7.976250861E0
1.863431958E0,7.072642365E0,-1.782792664E0,1.457519073E0,7.438076468E0
1.873442959E0,6.518794098E0,-1.653611298E0,1.926643524E0,6.995788882E0
1.883453958E0,6.122867432E0,-1.399739227E0,2.154469757E0,6.640068932E0
1.893464958E0,5.833968201E0,-1.278641052E0,2.099833374E0,6.330829970E0
1.903475958E0,5.717210999E0,-1.283580780E0,1.718576202E0,6.106356146E0
1.913487958E0,5.895190887E0,-1.109792175E0,1.548080750E0,6.195277902E0
1.923498958E0,6.053711243E0,-8.306227112E-1,1.281634827E0,6.243391845E0
1.933509958E0,6.167923737E0,-6.939569092E-1,8.523275757E-1,6.265087526E0
1.943520959E0,6.455924835E0,-7.610174561E-1,7.415579224E-1,6.542783903E0
1.953531959E0,6.607559509E0,-9.128018188E-1,1.037342834E0,6.750491092E0
1.963543958E0,6.812633057E0,-9.515711975E-1,1.362766113E0,7.012459511E0
1.973554959E0,7.038663025E0,-7.954458618E-1,1.562600555E0,7.253773624E0
1.983565958E0,7.188351746E0,-6.667135620E-1,1.654808807E0,7.406436389E0
1.993576958E0,7.345075836E0,-5.658233643E-1,1.684297485E0,7.556927493E0
2.003587958E0,7.792944489E0,-4.005670166E-1,1.493743744E0,7.944917124E0
2.013599958E0,8.294701080E0,-2.655477905E-1,1.263971558E0,8.394653402E0
2.023610958E0,8.596024475E0,-2.936892700E-1,1.176703033E0,8.681158920E0
2.033622459E0,8.811127167E0,-4.245172119E-1,1.112935638E0,8.891276767E0
2.043633458E0,8.846453705E0,-5.978567505E-1,1.102008362E0,8.934853008E0
2.053644458E0,9.184750214E0,-8.696914673E-1,1.080153809E0,9.288849874E0
2.063655458E0,9.724527740E0,-1.022523651E0,1.165177002E0,9.847315971E0
2.073667458E0,9.831255798E0,-1.018482056E0,1.387015686E0,9.980716847E0
2.083678458E0,9.910740509E0,-9.937834167E-1,1.405427399E0,1.005910578E1
2.093689458E0,1.001597168E1,-1.166973267E0,1.281185760E0,1.016478983E1
2.103700459E0,1.018946091E1,-1.366658020E0,1.137783966E0,1.034347234E1
2.113711459E0,1.020083725E1,-1.543739777E0,9.825567627E-1,1.036366879E1
2.123723458E0,1.039034317E1,-1.774110718E0,8.470884705E-1,1.057469900E1
2.133734459E0,1.102966370E1,-1.887574768E0,9.000782776E-1,1.122615520E1
2.143745458E0,1.172661438E1,-1.930385742E0,9.744735718E-1,1.192432273E1
2.153756458E0,1.230815506E1,-1.969155121E0,9.168434143E-1,1.249835408E1
2.163767458E0,1.286903870E1,-1.955982513E0,8.638536072E-1,1.304546924E1
2.173779458E0,1.326840820E1,-1.752256165E0,8.705895996E-1,1.341189711E1
2.183790458E0,1.321272400E1,-1.582958221E0,8.797206116E-1,1.333625662E1
2.193801458E0,1.308713516E1,-1.717678070E0,6.718029785E-1,1.321646110E1
2.203812459E0,1.328442490E1,-2.471959534E0,2.414479065E-1,1.351461527E1
2.213823458E0,1.347662521E1,-3.402125244E0,1.971400452E-1,1.390081823E1
2.223835459E0,1.331077011E1,-4.000730438E0,7.923023987E-1,1.392157276E1
2.233846459E0,1.308953018E1,-3.967499542E0,1.711241455E0,1.378423739E1
2.243857458E0,1.299357971E1,-3.410956879E0,2.461181946E0,1.365742132E1
2.253868458E0,1.310943878E1,-2.927911377E0,2.737657013E0,1.370856725E1
2.263879458E0,1.327215042E1,-2.644400940E0,2.592608643E0,1.377913106E1
2.273891458E0,1.339983490E1,-2.608176270E0,2.405946808E0,1.386170043E1
2.283902458E0,1.313279022E1,-2.797682190E0,2.253863068E0,1.361532605E1
2.293913458E0,1.307950104E1,-3.223845978E0,2.246678009E0,1.365701623E1
2.303924459E0,1.324625427E1,-3.664978638E0,2.537074127E0,1.397612485E1
2.313935458E0,1.338082443E1,-3.875590668E0,2.780617676E0,1.420557990E1
2.323946458E0,1.346794327E1,-3.855233002E0,2.775079193E0,1.428108476E1
2.333958459E0,1.344294525E1,-3.669918365E0,2.644850006E0,1.418366347E1
2.343969458E0,1.334699478E1,-3.361110535E0,2.461181946E0,1.398201524E1
2.353980458E0,1.316287766E1,-2.982098694E0,2.168540497E0,1.366955847E1
2.363991458E0,1.298175430E1,-2.572999420E0,1.892215118E0,1.336887239E1
2.374002459E0,1.257265503E1,-2.268233185E0,1.731000366E0,1.289235814E1
2.384014458E0,1.206535995E1,-2.176923065E0,1.715881805E0,1.237966701E1
2.394025458E0,1.156330399E1,-2.198478241E0,1.893861694E0,1.192182946E1
2.404036459E0,1.116932327E1,-2.271526337E0,2.210153961E0,1.161027109E1
2.414047458E0,1.055455170E1,-2.229314117E0,2.228116608E0,1.101512172E1
2.424058458E0,1.015742752E1,-2.184407501E0,1.989063721E0,1.057834318E1
2.434070459E0,9.904603271E0,-2.107467499E0,1.826801147E0,1.028979046E1
2.444081458E0,9.610464935E0,-1.997146912E0,1.676663361E0,9.957953208E0
2.454092458E0,9.424401855E0,-1.835034027E0,1.439855804E0,9.708753007E0
2.464103458E0,9.197922821E0,-1.779200134E0,1.177750854E0,9.442162592E0
2.474114459E0,8.916957092E0,-1.804497528E0,9.126521301E-1,9.143372957E0
2.484125459E0,8.664581909E0,-1.778302002E0,7.042854309E-1,8.873181822E0
2.494137459E0,8.495433655E0,-1.737287292E0,5.742059326E-1,8.690240076E0
2.504148459E0,8.273445282E0,-1.838327179E0,2.808160400E-1,8.479870359E0
2.514159458E0,7.824229431E0,-1.854044495E0,2.471360779E-1,8.044695359E0
2.524170458E0,7.281458130E0,-1.779499512E0,2.683918762E-1,7.500552327E0
2.534181458E0,6.913972321E0,-1.786235504E0,3.044668579E-1,7.147471622E0
2.544193458E0,6.640191650E0,-1.865121460E0,4.721182251E-1,6.913300141E0
2.554204458E0,6.313271484E0,-1.966460724E0,6.623725891E-1,6.645532489E0
2.564215458E0,6.009553070E0,-2.089355164E0,7.514373779E-1,6.406620890E0
2.574226459E0,5.803431702E0,-2.212399292E0,7.529342651E-1,6.256312025E0
2.584237458E0,5.714067535E0,-2.280657349E0,7.150630188E-1,6.193809883E0
2.594249459E0,5.730533295E0,-2.241588593E0,5.548960876E-1,6.178320235E0
2.604260459E0,5.777834930E0,-2.129621429E0,2.703378296E-1,6.163744516E0
2.614271458E0,5.688321075E0,-2.124532013E0,-3.787124634E-2,6.072237410E0
2.624282458E0,5.651497650E0,-2.212998047E0,-2.764750671E-1,6.075625442E0
2.634293458E0,5.574557648E0,-2.271825714E0,-3.225791931E-1,6.028344912E0
2.644305458E0,5.549409943E0,-2.383044434E0,-1.919009399E-1,6.042489343E0
2.654316458E0,5.724396057E0,-2.531984711E0,-6.765930176E-2,6.259731190E0
2.664327458E0,5.860463104E0,-2.647993469E0,6.316864014E-2,6.431243075E0
2.674338459E0,6.041436768E0,-2.764900360E0,3.727249146E-2,6.644171992E0
2.684349458E0,6.291865997E0,-2.907254333E0,-7.469467163E-2,6.931470607E0
2.694360458E0,6.483168182E0,-2.999163208E0,-2.118095398E-1,7.146419587E0
2.704372459E0,6.674919434E0,-3.072959747E0,-2.368075562E-1,7.352122746E0
2.714383458E0,6.925498352E0,-3.017425232E0,-1.932481384E-1,7.556766987E0
2.724394458E0,7.254963226E0,-2.984044647E0,-5.807922363E-2,7.844895606E0
2.734405458E0,7.422764282E0,-2.972219238E0,1.206491089E-1,7.996628852E0
2.744416459E0,7.768545227E0,-3.089874573E0,1.911524963E-1,8.362664593E0
2.754428458E0,8.429720306E0,-3.423680420E0,-1.787283325E-1,9.100204167E0
2.764439458E0,9.166488190E0,-4.037254486E0,-8.890013123E-1,1.005555831E1
2.774450459E0,9.869725800E0,-4.458777924E0,-1.461710358E0,1.092834778E1
2.784461458E0,1.020862106E1,-4.574936371E0,-1.776954803E0,1.132711593E1
2.794472458E0,1.023107437E1,-4.301155701E0,-1.638193359E0,1.121866751E1
2.804484458E0,1.029873367E1,-3.739972687E0,-9.045689392E-1,1.099406913E1
2.814495458E0,1.097263229E1,-3.140169983E0,1.493893433E-1,1.141409848E1
2.824506458E0,1.161928757E1,-2.600841522E0,1.278042297E0,1.197520824E1
2.834517458E0,1.191297684E1,-2.275118866E0,2.002236328E0,1.229244212E1
2.844528459E0,1.216220856E1,-2.278112640E0,2.166145477E0,1.256189876E1
2.854539458E0,1.227133163E1,-2.503094788E0,2.037712555E0,1.268870900E1
2.864551459E0,1.223869949E1,-2.753673706E0,1.684596863E0,1.265726474E1
2.874562459E0,1.223555603E1,-2.866089935E0,1.206940155E0,1.262457949E1
2.884573458E0,1.244601837E1,-2.728675690E0,7.803273010E-1,1.276549862E1
2.894584458E0,1.273791138E1,-2.424508209E0,5.551954651E-1,1.297847712E1
2.904595458E0,1.286888901E1,-2.113005981E0,5.209167480E-1,1.305160729E1
2.914607458E0,1.282772461E1,-1.904639282E0,4.556524658E-1,1.297635498E1
2.924618458E0,1.254645950E1,-1.879940643E0,4.053570557E-1,1.269299560E1
2.934629458E0,1.203377563E1,-1.840722198E0,3.876937866E-1,1.217991464E1
2.944640459E0,1.137873779E1,-1.639839935E0,2.998265076E-1,1.150020194E1
2.954651458E0,1.074884766E1,-1.511706390E0,1.176553345E-1,1.085526715E1
2.964663459E0,1.051593201E1,-1.159488831E0,1.065783691E-1,1.058019845E1
2.974674459E0,1.057775345E1,-5.617817688E-1,1.836680603E-1,1.059425319E1
2.984685458E0,1.050365753E1,1.269360352E-1,4.429289246E-1,1.051375862E1
2.994696458E0,1.003168900E1,4.888833618E-1,6.906637573E-1,1.006731382E1
3.004707458E0,9.846673737E0,4.273612976E-1,8.282276917E-1,9.890681597E0
3.014719458E0,9.523196411E0,3.153941345E-1,8.666976929E-1,9.567753563E0
3.024730458E0,8.945098572E0,3.502716064E-2,8.532257080E-1,8.985767050E0
3.034741417E0,8.340056763E0,-2.993774414E-1,8.066725159E-1,8.384324314E0
3.044752417E0,7.953710175E0,-3.299139404E-1,7.623646545E-1,7.996971215E0
3.054763417E0,7.794591064E0,-3.457809448E-1,6.996450806E-1,7.833563529E0
3.064774417E0,7.570956116E0,-3.851490784E-1,7.536827087E-1,7.618120106E0
3.074786417E0,7.413932648E0,-4.239184570E-1,8.881031799E-1,7.478959247E0
3.084797417E0,7.243736572E0,-4.632865906E-1,7.873626709E-1,7.301115940E0
3.094808417E0,7.138505402E0,-3.930825806E-1,6.149212646E-1,7.175716093E0
3.104819417E0,7.320377197E0,-3.399430847E-1,1.043480072E0,7.402184426E0
3.114830417E0,7.456294556E0,1.362167358E-1,1.914369049E0,7.699330643E0
3.124842417E0,7.401508484E0,4.438270569E-1,2.469714203E0,7.815292607E0
3.134853417E0,7.570207672E0,2.133064270E-1,2.395318909E0,7.942990401E0
3.144864417E0,7.895780640E0,1.182540894E-2,2.488874359E0,8.278767259E0
3.154875417E0,8.522826691E0,-2.433938599E-1,2.725382538E0,8.951286240E0
3.164886417E0,9.812095642E0,-2.751278687E-1,2.369273071E0,1.009783992E1
3.174897417E0,1.059197388E1,7.828720093E-2,2.129920807E0,1.080428629E1
3.184909417E0,1.076216995E1,6.560856628E-1,1.363364868E0,1.086800415E1
3.194920417E0,1.076216995E1,8.467890930E-1,8.795709229E-1,1.083120487E1
3.204931417E0,1.123698257E1,6.123765564E-1,6.442602539E-1,1.127208294E1
3.214942417E0,1.191806625E1,3.344046021E-1,1.002315674E0,1.196481368E1
3.224953417E0,1.209215424E1,3.466790771E-1,1.775757294E0,1.222676140E1
3.234965417E0,1.195953003E1,1.278341675E-1,2.030228119E0,1.213130357E1
3.244976417E0,1.231504074E1,-2.484832764E-2,2.089654541E0,1.249109691E1
3.254987417E0,1.250020569E1,3.400927734E-1,2.224075012E0,1.270107535E1
3.264998417E0,1.262594421E1,3.053649902E-1,2.173180847E0,1.281524210E1
3.275009417E0,1.290316772E1,-1.736389160E-2,2.383643188E0,1.312150120E1
3.285021417E0,1.305644897E1,-1.546284485E-1,2.867287445E0,1.336847437E1
3.295032417E0,1.358544891E1,-2.426454163E-1,3.007994843E0,1.391658478E1
3.305043417E0,1.436053711E1,-6.491999817E-1,2.889740753E0,1.466277901E1
3.315054417E0,1.505344620E1,-1.342408447E0,2.634521484E0,1.534108882E1
3.325065417E0,1.549113602E1,-1.755399628E0,2.547851715E0,1.579709693E1
3.335077417E0,1.545521072E1,-1.884880371E0,2.908002777E0,1.583896438E1
3.345088417E0,1.559696594E1,-1.335073700E0,3.762425995E0,1.609980179E1
3.355099417E0,1.572869202E1,-5.536985779E-1,4.752916260E0,1.644045461E1
3.365110417E0,1.559891190E1,9.954299927E-2,5.459297333E0,1.652694432E1
3.375121417E0,1.514730103E1,-9.190887451E-2,5.759872284E0,1.620571826E1
3.385132417E0,1.419123917E1,-1.021625519E0,5.533093872E0,1.526597902E1
3.395144417E0,1.321646622E1,-2.122885437E0,5.072351990E0,1.431469093E1
3.405155417E0,1.243808487E1,-2.963986359E0,4.853956146E0,1.367669772E1
3.415166417E0,1.160536652E1,-3.462300110E0,4.831951904E0,1.303916459E1
3.425177417E0,1.087698120E1,-3.699257355E0,4.853656769E0,1.247201704E1
3.435188417E0,1.063688049E1,-3.602109375E0,4.782554626E0,1.220619709E1
3.445200417E0,1.053299652E1,-3.248394928E0,4.594096527E0,1.194159990E1
3.455211417E0,1.003632935E1,-2.982098694E0,4.168232117E0,1.126920487E1
3.465222417E0,9.395960999E0,-2.849624176E0,3.579356689E0,1.045065717E1
3.475233417E0,8.822653198E0,-2.753074951E0,3.216062164E0,9.785790054E0
3.485244417E0,8.408913574E0,-2.731220398E0,2.931054840E0,9.314530307E0
3.495256417E0,8.365803223E0,-2.550396423E0,2.594105530E0,9.122530843E0
3.505267417E0,8.612490234E0,-2.273621979E0,2.355651398E0,9.213763533E0
3.515278417E0,8.875942383E0,-2.001188507E0,2.137854309E0,9.346525005E0
3.525289417E0,9.126521301E0,-1.779200134E0,2.010169830E0,9.513134443E0
3.535300417E0,9.282796326E0,-1.591340790E0,2.124681702E0,9.654892307E0
3.545311417E0,9.388925629E0,-1.444496155E0,2.355052643E0,9.786969222E0
3.555323417E0,9.430539093E0,-1.489402771E0,2.552042999E0,9.882626760E0
3.565334417E0,9.442514191E0,-1.518891449E0,2.665207672E0,9.928314933E0
3.575345417E0,9.476643219E0,-1.477727051E0,2.590513000E0,9.934847837E0
3.585356417E0,9.467362518E0,-1.456770630E0,2.351609802E0,9.863224746E0
3.595367417E0,9.263336792E0,-1.479822693E0,2.033970337E0,9.598766538E0
3.605379417E0,9.013805695E0,-1.503922577E0,1.756297760E0,9.305646567E0
3.615390417E0,8.826245728E0,-1.475182343E0,1.540446625E0,9.080294730E0
3.625401417E0,8.812324677E0,-1.477727051E0,1.473535767E0,9.056050524E0
3.635412417E0,8.828640747E0,-1.448388062E0,1.497485962E0,9.071118433E0
3.645423417E0,8.827143860E0,-1.443148956E0,1.443148956E0,9.060012502E0
3.655435417E0,8.744216309E0,-1.471140747E0,1.290466461E0,8.960517710E0
3.665446417E0,8.488997040E0,-1.497785339E0,1.117725677E0,8.692280619E0
3.675457417E0,8.257129211E0,-1.675316162E0,9.377998352E-1,8.477401464E0
3.685468417E0,8.123906250E0,-1.841470642E0,9.047186279E-1,8.378984585E0
3.695479417E0,8.226293335E0,-1.963616638E0,1.053808594E0,8.522804989E0
3.705490417E0,8.363108826E0,-2.221081238E0,1.194515991E0,8.735082115E0
3.715502417E0,8.292006683E0,-2.450703735E0,1.283281403E0,8.741289081E0
3.725513417E0,8.174650726E0,-2.491269379E0,1.249451752E0,8.636693076E0
3.735524417E0,8.153694305E0,-2.445614319E0,1.140178986E0,8.588583605E0
3.745535417E0,8.300239563E0,-2.397115173E0,8.984317017E-1,8.686041531E0
3.755546417E0,8.501570892E0,-2.451901245E0,5.640270996E-1,8.866039359E0
3.765558417E0,8.656648407E0,-2.627635803E0,3.790118408E-1,9.054594498E0
3.775569417E0,8.728948059E0,-2.903063049E0,2.956352234E-1,9.203787779E0
3.785580417E0,8.628057861E0,-3.107687531E0,3.585044861E-1,9.177670168E0
3.795591417E0,8.488248596E0,-3.493585052E0,6.126759338E-1,9.199503930E0
3.805602417E0,8.249944153E0,-3.927832031E0,1.000818787E0,9.191903026E0
3.815614417E0,7.965535583E0,-4.116888885E0,1.503174133E0,9.091648019E0
3.825625417E0,7.863747253E0,-4.072581024E0,1.953288116E0,9.068614642E0
3.835636417E0,8.040379944E0,-3.799548798E0,2.197131042E0,9.160331082E0
3.845647417E0,8.574319611E0,-3.684887238E0,1.877695312E0,9.519616086E0
3.855658417E0,9.561666412E0,-3.944896545E0,9.530680847E-1,1.038730052E1
3.865670417E0,1.004890320E1,-4.047433319E0,8.726852417E-2,1.083373379E1
3.875681417E0,9.776918793E0,-4.309837646E0,-4.628375244E-1,1.069472114E1
3.885692417E0,9.185648346E0,-4.053420868E0,-7.622149658E-1,1.006912747E1
3.895703417E0,9.240284729E0,-3.952830048E0,-5.526507568E-1,1.006544336E1
3.905714417E0,9.379794617E0,-3.642675018E0,4.146377563E-2,1.006237286E1
3.915726417E0,8.940308533E0,-2.404898987E0,5.655239868E-1,9.275369167E0
3.925737417E0,9.177565155E0,-1.877845001E0,1.063837738E0,9.427924202E0
3.935748417E0,9.656119995E0,-1.686243439E0,1.171463928E0,9.872000711E0
3.945759417E0,9.973609772E0,-1.693877563E0,1.008602600E0,1.016658213E1
3.955770417E0,1.023212219E1,-1.983076172E0,6.159690857E-1,1.044070561E1
3.965781417E0,1.034917877E1,-2.286644897E0,1.504371643E-1,1.059985271E1
3.975793417E0,1.047192352E1,-2.557731171E0,-2.035766602E-2,1.077977669E1
3.985804417E0,1.059062668E1,-2.664608917E0,2.278262329E-1,1.092306820E1
3.995815417E0,1.080049026E1,-2.741399231E0,5.710624695E-1,1.115759706E1
4.005826417E0,1.072624466E1,-2.848426666E0,6.447093201E-1,1.111672205E1
4.015837417E0,1.044123734E1,-2.747237091E0,4.785548401E-1,1.080720887E1
4.025849417E0,1.011446686E1,-2.592458954E0,3.887416077E-1,1.044865557E1
4.035860542E0,9.806856537E0,-2.202070770E0,2.201921082E-1,1.005345888E1
4.045871542E0,9.397906952E0,-1.762285309E0,1.826202393E-1,9.563454122E0
4.055882542E0,9.075178070E0,-1.407073975E0,1.960922241E-1,9.185704455E0
4.065893542E0,8.771160278E0,-1.159189453E0,3.132984924E-1,8.852972877E0
4.075904542E0,8.496481476E0,-1.009051666E0,5.049000549E-1,8.571073842E0
4.085916542E0,8.228089600E0,-9.831555176E-1,6.520440674E-1,8.312232835E0
4.095927542E0,7.908803558E0,-9.922865295E-1,7.842192078E-1,8.009294978E0
4.105938542E0,7.678282928E0,-1.090482330E0,8.665480042E-1,7.803594421E0
4.115949542E0,7.568112030E0,-1.216969299E0,1.012344818E0,7.731893430E0
4.125960542E0,7.327113190E0,-1.213077393E0,1.176703033E0,7.519492967E0
4.135972542E0,7.099885712E0,-1.094224548E0,1.225651245E0,7.287518470E0
4.145983542E0,7.018155670E0,-9.506730652E-1,1.108594666E0,7.168491502E0
4.155994542E0,6.958579559E0,-9.144483948E-1,1.096619568E0,7.103563882E0
4.166005542E0,6.982679443E0,-8.828640747E-1,1.269360352E0,7.151820529E0
4.176016542E0,7.168892212E0,-8.376580811E-1,1.499731293E0,7.371830204E0
4.186027542E0,7.332801361E0,-7.408094788E-1,1.718576202E0,7.567845047E0
4.196039542E0,7.416477356E0,-6.480024719E-1,1.991309052E0,7.706448943E0
4.206050542E0,7.703580322E0,-5.734574890E-1,2.181413727E0,8.026990041E0
4.216061542E0,8.117170258E0,-4.381388855E-1,2.324067078E0,8.454685473E0
4.226072542E0,8.363707581E0,-2.787203979E-1,2.430196381E0,8.714077347E0
4.236083542E0,8.460406494E0,-1.525328064E-1,2.380050659E0,8.790130002E0
4.246095542E0,8.637787628E0,-7.005432129E-2,2.110311584E0,8.892114355E0
4.256106542E0,8.982820129E0,-8.831634521E-2,1.670376434E0,9.137232332E0
4.266117542E0,9.331894226E0,-1.169068909E-1,1.102756805E0,9.397552322E0
4.276128542E0,9.707014160E0,-4.243675232E-1,6.782395935E-1,9.739929191E0
4.286139542E0,1.030397278E1,-4.186793518E-1,6.288423157E-1,1.033163056E1
4.296151542E0,1.080378342E1,-4.502636719E-1,8.104147339E-1,1.084348862E1
4.306162542E0,1.150896698E1,-5.200186157E-1,5.146298218E-1,1.153219772E1
4.316173542E0,1.215008377E1,-2.731819153E-1,5.008584595E-1,1.216347085E1
4.326184542E0,1.230965195E1,-4.742138672E-1,4.590953064E-1,1.232733460E1
4.336195542E0,1.250754044E1,-6.027964783E-1,2.430944824E-1,1.252441720E1
4.346206542E0,1.257998978E1,-7.872129822E-1,2.151026917E-1,1.260643154E1
4.356218542E0,1.273506729E1,-9.842033386E-1,1.917512512E-1,1.277448095E1
4.366229542E0,1.312725174E1,-1.036444702E0,2.511776733E-1,1.317049908E1
4.376240542E0,1.346554825E1,-9.042695618E-1,4.484674072E-1,1.350332611E1
4.386251542E0,1.395398254E1,-8.343649292E-1,5.590873718E-1,1.399008121E1
4.396262542E0,1.461006821E1,-9.876461792E-1,4.239184570E-1,1.464954760E1
4.406274542E0,1.526780045E1,-1.441951447E0,2.242337036E-1,1.533738032E1
4.416285542E0,1.569306610E1,-1.964963837E0,2.103126526E-1,1.581700471E1
4.426296542E0,1.578617249E1,-2.143542480E0,4.731660461E-1,1.593806457E1
4.436307542E0,1.579889603E1,-1.774410095E0,1.006956024E0,1.593008497E1
4.446318542E0,1.573662552E1,-9.903405762E-1,1.706451416E0,1.585982767E1
4.456330542E0,1.551658310E1,1.242416382E-2,2.308798828E0,1.568741717E1
4.466341542E0,1.513113464E1,7.185058594E-1,2.729274445E0,1.539208970E1
4.476352542E0,1.451277054E1,8.146060181E-1,2.990930328E0,1.484014002E1
4.486363542E0,1.368065094E1,4.810995483E-1,3.066074066E0,1.402827420E1
4.496374542E0,1.291095154E1,-7.484436035E-2,3.001258850E0,1.325540742E1
4.506385542E0,1.191731781E1,-9.659413147E-1,2.873873749E0,1.229693688E1
4.516397542E0,1.142095001E1,-1.488953705E0,2.724035339E0,1.183534752E1
4.526408542E0,1.108684479E1,-1.553469543E0,2.625390472E0,1.149887256E1
4.536419542E0,1.097727264E1,-1.527423706E0,2.396815796E0,1.133923559E1
4.546430542E0,1.095347214E1,-1.371897125E0,2.104024658E0,1.123777439E1
4.556441542E0,1.092203751E1,-1.135089569E0,1.816921692E0,1.113016334E1
4.566453542E0,1.088910599E1,-9.211843872E-1,1.434616699E0,1.102176642E1
4.576464542E0,1.077549225E1,-7.632627869E-1,1.193917236E0,1.086826765E1
4.586475542E0,1.063628174E1,-5.650749207E-1,1.181792450E0,1.071664277E1
4.596486542E0,1.054107971E1,-3.977229309E-1,1.296004944E0,1.062789602E1
4.606497542E0,1.037507492E1,-2.740800476E-1,1.458716583E0,1.048070387E1
4.616508542E0,1.021685394E1,-2.579136658E-1,1.629810791E0,1.034924670E1
4.626520542E0,1.009859985E1,-3.947291565E-1,1.842967529E0,1.027297715E1
4.636531542E0,1.003737717E1,-5.454656982E-1,2.042053528E0,1.025750729E1
4.646542542E0,9.978848877E0,-6.433621216E-1,2.179617462E0,1.023435743E1
4.656553542E0,9.944869537E0,-8.125103760E-1,2.312840424E0,1.024255017E1
4.666564542E0,1.001043320E1,-8.728349304E-1,2.461181946E0,1.034543523E1
4.676576542E0,1.007060806E1,-8.765771484E-1,2.555336151E0,1.042666184E1
4.686587542E0,1.023571472E1,-8.930429077E-1,2.589016113E0,1.059577208E1
4.696598542E0,1.050470535E1,-8.098159790E-1,2.502196655E0,1.082892537E1
4.706609542E0,1.073762100E1,-7.366181946E-1,2.129920807E0,1.097158484E1
4.716620542E0,1.089733887E1,-6.253994751E-1,1.636846161E0,1.103731780E1
4.726631542E0,1.096275284E1,-4.909790039E-1,1.296304321E0,1.105004141E1
4.736643542E0,1.096424973E1,-3.963757324E-1,1.124910736E0,1.102893059E1
4.746654542E0,1.089988358E1,-3.293151855E-1,1.196611633E0,1.097031403E1
4.756665542E0,1.088895630E1,-3.122506714E-1,1.385518799E0,1.098118992E1
4.766676542E0,1.094269455E1,-3.489244080E-1,1.535656586E0,1.105543095E1
4.776687542E0,1.099403778E1,-6.050418091E-1,1.564546509E0,1.112127457E1
4.786699542E0,1.088805817E1,-9.382489014E-1,1.454824677E0,1.102481911E1
4.796710542E0,1.059736267E1,-1.229243774E0,1.250798950E0,1.074149123E1
4.806721542E0,1.036534515E1,-1.546434174E0,1.035546570E0,1.053110609E1
4.816732542E0,1.013108231E1,-1.739083557E0,9.827064514E-1,1.032612959E1
4.826743542E0,9.916877747E0,-1.861528931E0,1.043779449E0,1.014392576E1
4.836754542E0,9.823471985E0,-1.992506561E0,1.154848480E0,1.008981463E1
4.846766542E0,9.755363617E0,-2.230361938E0,1.307081909E0,1.009208090E1
4.856777542E0,9.648485870E0,-2.398612061E0,1.472937012E0,1.005067972E1
4.866788542E0,9.538913727E0,-2.483784943E0,1.550924835E0,9.978247871E0
4.876799542E0,9.448950806E0,-2.546953583E0,1.383423157E0,9.883496523E0
4.886810542E0,9.413923645E0,-2.669249268E0,9.990225220E-1,9.835898334E0
4.896822542E0,9.250313873E0,-2.711611176E0,6.893165588E-1,9.664176077E0
4.906833542E0,8.982820129E0,-2.841840363E0,5.661227417E-1,9.438623262E0
4.916844542E0,8.660390625E0,-3.022814026E0,6.071374512E-1,9.192844299E0
4.926855542E0,8.378526764E0,-3.125350800E0,8.051756287E-1,8.978632198E0
4.936866542E0,8.178093567E0,-3.077749786E0,1.032103729E0,8.798806524E0
4.946877542E0,8.168962555E0,-3.052751770E0,1.136436768E0,8.794471623E0
4.956889542E0,8.360115051E0,-3.229683838E0,9.123527527E-1,9.008594169E0
4.966900542E0,8.689130859E0,-3.622766418E0,4.650828552E-1,9.425589301E0
4.976911542E0,8.690627747E0,-3.913162537E0,7.978408813E-2,9.531328195E0
4.986922542E0,8.476273499E0,-3.895948334E0,-1.787283325E-1,9.330464600E0
4.996933542E0,8.365204468E0,-3.377875671E0,-1.282832336E-1,9.022369225E0
5.006945542E0,8.213270416E0,-2.383194122E0,2.929408264E-1,8.557057875E0
5.016956542E0,8.133186951E0,-1.573228455E0,6.747967529E-1,8.311385468E0
5.026967542E0,8.228388977E0,-1.144220581E0,8.927435303E-1,8.355394479E0
5.036977958E0,8.589438171E0,-1.172960815E0,7.854167175E-1,8.704663382E0
5.046988958E0,8.837921448E0,-1.598226471E0,4.399351501E-1,8.992036827E0
5.056999959E0,9.084608459E0,-2.156715088E0,3.113525391E-2,9.337156968E0
5.067011958E0,9.418863373E0,-2.764750671E0,-3.086581421E-1,9.821104997E0
5.077022959E0,9.701325989E0,-3.189567261E0,-4.504133606E-1,1.022212979E1
5.087033958E0,1.006387207E1,-3.245700531E0,-3.893403625E-1,1.058147811E1
5.097044958E0,1.034738251E1,-3.001857605E0,-1.257385254E-1,1.077475216E1
5.107055958E0,1.044138702E1,-2.638114014E0,1.172062683E-1,1.077014140E1
5.117067958E0,1.031310379E1,-2.314487000E0,2.085163879E-1,1.057168099E1
5.127078958E0,9.955497437E0,-2.128573608E0,8.831634521E-2,1.018089164E1
5.137089958E0,9.359287262E0,-1.966311035E0,-6.331832886E-2,9.563819653E0
5.147100959E0,8.670719147E0,-1.795216827E0,-6.122268677E-2,8.854824798E0
5.157111959E0,7.979456635E0,-1.614243164E0,1.035845947E-1,8.141758959E0
5.167122958E0,7.444469147E0,-1.355730743E0,2.930905151E-1,7.572584022E0
5.177134959E0,7.225773926E0,-1.052162018E0,4.360432434E-1,7.314983763E0
5.187145958E0,7.136709137E0,-9.029223633E-1,6.565347290E-1,7.223498041E0
5.197156958E0,7.026538239E0,-8.490344238E-1,8.827143860E-1,7.132480898E0
5.207167958E0,6.923103333E0,-9.404942322E-1,9.812095642E-1,7.055257711E0
5.217178958E0,6.737339630E0,-1.081650696E0,9.659413147E-1,6.891643936E0
5.227190958E0,6.620283051E0,-1.209035797E0,8.325686646E-1,6.781082938E0
5.237201958E0,6.576573944E0,-1.320404205E0,7.232958984E-1,6.746699124E0
5.247212959E0,6.481671295E0,-1.391955414E0,8.255332947E-1,6.680651755E0
5.257223959E0,6.472091217E0,-1.325343933E0,9.690847778E-1,6.677097166E0
5.267234958E0,6.465355225E0,-1.129850464E0,1.088386688E0,6.652966694E0
5.277245958E0,6.518644409E0,-9.930349731E-1,1.154100037E0,6.694086217E0
5.287257958E0,6.688241730E0,-9.377998352E-1,1.065783691E0,6.837246583E0
5.297268958E0,6.862778778E0,-8.452922058E-1,7.830216980E-1,6.958834274E0
5.307279958E0,6.977290649E0,-7.948471069E-1,5.240602112E-1,7.041946168E0
5.317290958E0,7.012168121E0,-8.547225952E-1,3.341052246E-1,7.071964280E0
5.327301959E0,7.144642639E0,-9.372010803E-1,4.123924255E-1,7.217640322E0
5.337313958E0,7.534282379E0,-1.029109955E0,6.024971008E-1,7.628071907E0
5.347324959E0,8.142317963E0,-1.108444977E0,7.860154724E-1,8.254926553E0
5.357335959E0,9.058113556E0,-1.061442719E0,1.039288788E0,9.179117769E0
5.367346958E0,9.989177399E0,-7.628137207E-1,1.341360626E0,1.010766037E1
5.377357958E0,1.074435699E1,-3.128494263E-1,1.294807434E0,1.082661574E1
5.387368958E0,1.132410141E1,1.422042847E-2,7.234455872E-1,1.134719562E1
5.397380958E0,1.152288803E1,1.609153748E-1,-1.496887207E-3,1.152401165E1
5.407391958E0,1.148920807E1,9.340576172E-2,-5.734574890E-1,1.150388978E1
5.417402958E0,1.152438492E1,-1.678010559E-1,-9.997709656E-1,1.156888702E1
5.427413959E0,1.180130905E1,-5.041516113E-1,-1.204694824E0,1.187334636E1
5.437424958E0,1.205922272E1,-6.828799438E-1,-1.192570038E0,1.213727321E1
5.447436959E0,1.239647141E1,-8.036787415E-1,-1.108894043E0,1.247189035E1
5.457447958E0,1.270108795E1,-7.732919312E-1,-8.764274597E-1,1.275475365E1
5.467458958E0,1.296933014E1,-5.706134033E-1,-5.453160095E-1,1.299332496E1
5.477469958E0,1.337902817E1,-4.751119995E-1,-1.519340515E-1,1.338832365E1
5.487480958E0,1.391940445E1,-6.517446899E-1,1.737886047E-1,1.393573801E1
5.497491959E0,1.470122864E1,-1.306183777E0,2.730322266E-1,1.476166610E1
5.507503958E0,1.520642807E1,-2.229314117E0,2.941383362E-1,1.537178628E1
5.517514959E0,1.533755539E1,-2.906805267E0,5.475613403E-1,1.562017752E1
5.527525959E0,1.529070282E1,-2.912044373E0,1.049168243E0,1.560084450E1
5.537536958E0,1.523651550E1,-2.146536255E0,1.785337372E0,1.549020504E1
5.547547958E0,1.534743484E1,-9.436376953E-1,2.405797119E0,1.556348509E1
5.557559958E0,1.555595123E1,2.040257263E-1,2.805915070E0,1.580830176E1
5.567570958E0,1.571147781E1,9.132508850E-1,2.826422424E0,1.598978505E1
5.577581958E0,1.541150162E1,1.121617584E0,2.579136658E0,1.566602547E1
5.587592958E0,1.478969467E1,7.610174561E-1,2.215243378E0,1.497402816E1
5.597603959E0,1.397448990E1,1.377136230E-1,1.962269440E0,1.411225830E1
5.607614958E0,1.297935928E1,-4.023632813E-1,1.870959320E0,1.311968568E1
5.617626959E0,1.216131042E1,-8.298742676E-1,1.909728699E0,1.233828295E1
5.627637959E0,1.157827286E1,-9.705816650E-1,2.034569092E0,1.179567304E1
5.637648958E0,1.121108643E1,-8.852590942E-1,2.191442871E0,1.145751126E1
5.647659958E0,1.098565521E1,-6.715036011E-1,2.377955017E0,1.126011579E1
5.657670958E0,1.074241104E1,-3.339555359E-1,2.450554047E0,1.102343578E1
5.667682958E0,1.039692947E1,-5.568420410E-2,2.332150269E0,1.065542904E1
5.677693958E0,9.990374908E0,2.034269714E-1,2.173031158E0,1.022599813E1
5.687704958E0,9.610614624E0,4.752616882E-1,2.057022400E0,9.839772776E0
5.697715959E0,9.308842163E0,6.607260132E-1,1.943857727E0,9.532559160E0
5.707726958E0,9.115594025E0,7.753875732E-1,1.838027802E0,9.331325014E0
5.717737958E0,9.115444336E0,8.330177307E-1,1.672023010E0,9.304886078E0
5.727749959E0,9.223818970E0,7.304809570E-1,1.399739227E0,9.357975674E0
5.737760958E0,9.281299438E0,6.789880371E-1,1.177451477E0,9.380295091E0
5.747771958E0,9.267378387E0,6.569837952E-1,1.011147308E0,9.345498850E0
5.757782958E0,9.219178619E0,6.179150391E-1,9.442364502E-1,9.287984490E0
5.767793959E0,9.164691925E0,5.905220032E-1,7.604187012E-1,9.215125117E0
5.777805958E0,9.175918579E0,5.498066711E-1,5.257067871E-1,9.207395765E0
5.787816959E0,9.200018463E0,4.387376404E-1,4.114942932E-1,9.219661490E0
5.797827959E0,9.211394806E0,2.737806702E-1,3.855981445E-1,9.223526227E0
5.807838958E0,9.275162201E0,5.343887329E-2,5.095404053E-1,9.289301426E0
5.817849958E0,9.360035706E0,-1.474433899E-1,7.952961731E-1,9.394919051E0
5.827860958E0,9.547595673E0,-3.441343689E-1,1.164278870E0,9.624476966E0
5.837872958E0,9.735604706E0,-4.809498596E-1,1.563199310E0,9.872026329E0
5.847883958E0,9.862540741E0,-5.903723145E-1,1.914369049E0,1.006394844E1
5.857894958E0,1.011521530E1,-6.463558960E-1,2.226020966E0,1.037740458E1
5.867905959E0,1.047850983E1,-7.334747314E-1,2.414029999E0,1.077797264E1
5.877916958E0,1.092892319E1,-8.668473816E-1,2.360441437E0,1.121447592E1
5.887928959E0,1.108055786E1,-1.069376221E0,2.192490692E0,1.134589545E1
5.897939959E0,1.106543930E1,-1.276994476E0,1.951791229E0,1.130858748E1
5.907950958E0,1.106768463E1,-1.412313080E0,1.856439514E0,1.131081955E1
5.917961958E0,1.105990082E1,-1.465153198E0,1.769320679E0,1.129595395E1
5.927972958E0,1.097278198E1,-1.472338257E0,1.736688538E0,1.120650755E1
5.937983959E0,1.098475708E1,-1.461560669E0,1.684596863E0,1.120887658E1
5.947995958E0,1.123099503E1,-1.537901917E0,1.601070557E0,1.144831073E1
5.958006958E0,1.124027573E1,-1.629661102E0,1.758692780E0,1.149315422E1
5.968017959E0,1.142409348E1,-1.717827759E0,1.863325195E0,1.170182997E1
5.978028958E0,1.165416504E1,-1.766626282E0,1.851050720E0,1.193176097E1
5.988039958E0,1.195009964E1,-1.866169281E0,1.600172424E0,1.220032872E1
5.998051959E0,1.248418900E1,-1.739832001E0,1.328936462E0,1.267470167E1
6.008062958E0,1.264884659E1,-1.414857788E0,1.052910461E0,1.277120836E1
6.018073958E0,1.255738678E1,-1.327289886E0,7.595205688E-1,1.265015939E1
6.028084958E0,1.249496658E1,-1.258732452E0,5.201683044E-1,1.256897658E1
6.038096708E0,1.247640518E1,-1.184037781E0,6.301895142E-1,1.254829752E1
6.048107708E0,1.274000702E1,-1.111887817E0,5.816903687E-1,1.280165759E1
6.058119708E0,1.261322067E1,-1.242566071E0,6.084846497E-1,1.268887543E1
6.068130708E0,1.264031433E1,-1.515149231E0,5.638774109E-1,1.274327985E1
6.078141708E0,1.254286697E1,-1.965113525E0,5.340893555E-1,1.270710174E1
6.088152708E0,1.235740265E1,-2.204465790E0,6.120771790E-1,1.256740658E1
6.098163709E0,1.204440353E1,-1.963167572E0,8.421487427E-1,1.223237090E1
6.108175708E0,1.167527115E1,-1.377884674E0,1.301842804E0,1.182815781E1
6.118186709E0,1.153980286E1,-7.765850830E-1,1.729503479E0,1.169449942E1
6.128197709E0,1.136885834E1,-4.355941772E-1,1.919608154E0,1.153800579E1
6.138208708E0,1.090841583E1,-5.233117676E-1,1.732796631E0,1.105757547E1
6.148219708E0,1.026744873E1,-1.108594666E0,9.877958679E-1,1.037425786E1
6.158230708E0,9.680070190E0,-1.895508270E0,1.125659180E-1,9.864551768E0
6.168242708E0,9.182654572E0,-2.702629852E0,-6.741979980E-1,9.595827012E0
6.178253708E0,8.758586426E0,-3.377875671E0,-1.241518250E0,9.469120751E0
6.188264709E0,8.366102600E0,-3.738026733E0,-1.367107086E0,9.264636979E0
6.198275709E0,8.054001617E0,-3.821403351E0,-1.075663147E0,8.979260372E0
6.208286708E0,7.735164642E0,-3.764371948E0,-6.879693604E-1,8.629980883E0
6.218298709E0,7.430997162E0,-3.623215485E0,-3.933819580E-1,8.276603085E0
6.228309708E0,7.127278748E0,-3.485801239E0,-2.944377136E-1,7.939496596E0
6.238320708E0,6.764582977E0,-3.289110260E0,-3.002755737E-1,7.527814728E0
6.248331708E0,6.313271484E0,-3.065175934E0,-4.390370178E-1,7.031746145E0
6.258342708E0,5.863756256E0,-2.769840088E0,-5.525010681E-1,6.508525868E0
6.268353709E0,5.540578308E0,-2.402204590E0,-5.704637146E-1,6.065807756E0
6.278365708E0,5.304070129E0,-2.054627380E0,-5.192701721E-1,5.711768126E0
6.288376709E0,5.104684753E0,-1.739532623E0,-5.409750366E-1,5.420003152E0
6.298387709E0,4.915328522E0,-1.572480011E0,-6.565347290E-1,5.202325029E0
6.308398708E0,4.636308746E0,-1.639989624E0,-7.194039917E-1,4.970157629E0
6.318409708E0,4.613556061E0,-1.633852386E0,-8.080197144E-1,4.960571439E0
6.328421708E0,4.647535400E0,-1.336271210E0,-8.786727905E-1,4.915004773E0
6.338432708E0,4.466861115E0,-1.322799225E0,-9.675878906E-1,4.758032401E0
6.348443708E0,4.472399597E0,-1.394200745E0,-1.196312256E0,4.835009502E0
6.358454708E0,4.635859680E0,-1.332528992E0,-1.243913269E0,4.981380201E0
6.368465709E0,4.939428406E0,-1.240320740E0,-1.126407623E0,5.215854930E0
6.378476708E0,5.413642273E0,-1.077758789E0,-9.493258667E-1,5.600920127E0
6.388488709E0,5.617667999E0,-8.861572266E-1,-7.051835632E-1,5.730685146E0
6.398499709E0,5.746549988E0,-8.222401428E-1,-5.522016907E-1,5.831281362E0
6.408510708E0,5.690416718E0,-1.036295013E0,-3.737727356E-1,5.796072449E0
6.418521708E0,5.939498749E0,-1.050365753E0,-1.965412903E-1,6.034860568E0
6.428532708E0,6.271208954E0,-9.506730652E-1,-6.436614990E-3,6.342860747E0
6.438543709E0,6.519991608E0,-9.160949707E-1,4.939727783E-3,6.584037132E0
6.448555708E0,6.907835083E0,-9.539662170E-1,-8.532257080E-3,6.973400166E0
6.458566708E0,7.353009338E0,-1.098715210E0,-3.218307495E-2,7.434712987E0
6.468577709E0,7.772287445E0,-1.255888367E0,-1.393601990E-1,7.874333558E0
6.478588708E0,8.338709564E0,-1.172511749E0,-2.586621094E-1,8.424711692E0
6.488599708E0,8.864566040E0,-1.045725403E0,-3.876937866E-1,8.934449013E0
6.498611709E0,9.343569946E0,-9.859996033E-1,-5.456153870E-1,9.411279972E0
6.508622708E0,9.652976532E0,-9.809101868E-1,-5.783972168E-1,9.719911731E0
6.518633708E0,9.919721832E0,-1.098415833E0,-6.245013428E-1,9.999870024E0
6.528644708E0,1.033450928E1,-1.456022186E0,-7.051835632E-1,1.046037124E1
6.538655709E0,1.084988754E1,-2.073039093E0,-8.116122437E-1,1.107593180E1
6.548666709E0,1.141361526E1,-2.722688141E0,-7.328759766E-1,1.175673217E1
6.558678709E0,1.215906509E1,-3.276686096E0,-3.767665100E-1,1.259847168E1
6.568689709E0,1.268043091E1,-3.447780304E0,-8.681945801E-2,1.314108271E1
6.578700708E0,1.315479446E1,-3.304528198E0,2.863545227E-1,1.356652214E1
6.588711708E0,1.366643051E1,-2.925516357E0,6.670129395E-1,1.399195752E1
6.598722708E0,1.426653259E1,-2.578238525E0,1.016835480E0,1.453324535E1
6.608733709E0,1.480122070E1,-2.552791443E0,1.234183502E0,1.507037118E1
6.618745708E0,1.550580551E1,-2.910397797E0,1.170565796E0,1.581994451E1
6.628756708E0,1.580323700E1,-3.406615906E0,1.248403931E0,1.621437153E1
6.638767709E0,1.564771042E1,-3.768862610E0,1.569935303E0,1.617157579E1
6.648778708E0,1.541763885E1,-3.601360931E0,1.994003448E0,1.595773913E1
6.658789708E0,1.534608765E1,-2.814746704E0,2.488275604E0,1.579926329E1
6.668801709E0,1.539907745E1,-1.638043671E0,2.841840363E0,1.574454922E1
6.678812708E0,1.558259583E1,-4.885839844E-1,2.982847137E0,1.587303953E1
6.688823708E0,1.573228455E1,3.712280273E-1,2.952610016E0,1.601126145E1
6.698834708E0,1.560804291E1,7.194039917E-1,2.704276428E0,1.585691195E1
6.708845709E0,1.525013718E1,6.355783081E-1,2.134860535E0,1.541195228E1
6.718856709E0,1.473101669E1,2.817141724E-1,1.542991333E0,1.481428493E1
6.728868708E0,1.418959259E1,4.430786133E-2,1.241518250E0,1.424387127E1
6.738879709E0,1.382914215E1,-3.487747192E-2,1.271755371E0,1.388753941E1
6.748890708E0,1.363424744E1,6.765930176E-2,1.691033478E0,1.373888187E1
6.758901708E0,1.347632584E1,2.865042114E-1,2.289488983E0,1.367242490E1
6.768912708E0,1.319925201E1,5.721102905E-1,2.734962616E0,1.349175987E1
6.778923708E0,1.277832733E1,8.419990540E-1,2.840193787E0,1.311721436E1
6.788935708E0,1.215502350E1,9.199868774E-1,2.746937714E0,1.249546473E1
6.798946708E0,1.143786484E1,9.560618591E-1,2.636168060E0,1.177659494E1
6.808957709E0,1.077998291E1,1.028511200E0,2.499352570E0,1.111362363E1
6.818968709E0,1.036145325E1,1.185534668E0,2.403851166E0,1.070250934E1
6.828979708E0,1.009830048E1,1.426832886E0,2.347867584E0,1.046537179E1
6.838991709E0,9.863738251E0,1.649719391E0,2.165846100E0,1.023258499E1
6.849002708E0,9.603579254E0,1.830393677E0,1.899400177E0,9.959256826E0
6.859013708E0,9.286089478E0,1.916614380E0,1.587598572E0,9.613809739E0
6.869024708E0,9.026978302E0,1.847607880E0,1.278491364E0,9.302393902E0
6.879035708E0,8.831185455E0,1.654958496E0,1.013991394E0,9.041952373E0
6.889046709E0,8.690178680E0,1.353485413E0,9.024732971E-1,8.841130375E0
6.899058708E0,8.569679260E0,1.099164276E0,8.756790161E-1,8.684145235E0
6.909069709E0,8.554710388E0,9.876461792E-1,8.918453979E-1,8.657592218E0
6.919080708E0,8.598269806E0,9.623487854E-1,9.903405762E-1,8.708451831E0
6.929091708E0,8.849148102E0,9.602531433E-1,1.145567780E0,8.974510224E0
6.939102708E0,8.914562073E0,9.846524048E-1,1.344204712E0,9.068949422E0
6.949113708E0,8.915460205E0,9.614506531E-1,1.511856079E0,9.093708090E0
6.959125708E0,9.114097137E0,9.026229858E-1,1.644480286E0,9.305149665E0
6.969136708E0,9.335037689E0,7.897576904E-1,1.885479126E0,9.556237618E0
6.979147709E0,9.749376068E0,6.231541443E-1,2.076631622E0,9.987544929E0
6.989158709E0,1.025068359E1,4.409829712E-1,2.177970886E0,1.048878150E1
6.999169708E0,1.084674408E1,2.471360779E-1,2.104623413E0,1.105180406E1
7.009180708E0,1.158441010E1,1.350192261E-1,1.970202942E0,1.175153127E1
7.019192708E0,1.222597595E1,2.797682190E-1,1.896107025E0,1.237529717E1
7.029203708E0,1.288894730E1,3.306623840E-1,1.603465576E0,1.299251330E1
7.039214292E0,1.332259552E1,3.023712158E-1,1.290466461E0,1.338836373E1
7.049225292E0,1.366059265E1,1.612147522E-1,1.256337433E0,1.371918968E1
7.059236292E0,1.401670212E1,-4.490661621E-4,1.470242615E0,1.409359968E1
7.069248292E0,1.429362625E1,-1.383123779E-1,1.768721924E0,1.440330722E1
7.079259292E0,1.502500534E1,-3.177891541E-1,1.684297485E0,1.512245461E1
7.089270292E0,1.496423172E1,-5.879772949E-1,1.854792938E0,1.509020229E1
7.099281292E0,1.501093460E1,-8.984317017E-1,1.848955078E0,1.515103864E1
7.109292292E0,1.493788651E1,-1.337618408E0,1.785487061E0,1.510356383E1
7.119303292E0,1.472038879E1,-1.751058655E0,1.758842468E0,1.492814722E1
7.129315292E0,1.454300766E1,-1.991758118E0,1.672771454E0,1.477377191E1
7.139326292E0,1.434092789E1,-2.153721313E0,1.485211487E0,1.457760547E1
7.149337292E0,1.416204987E1,-2.226919098E0,1.250649261E0,1.439051593E1
7.159348292E0,1.396955017E1,-2.227667542E0,9.672885132E-1,1.417908607E1
7.169359292E0,1.381581985E1,-2.614163818E0,4.366419983E-1,1.406774278E1
7.179370292E0,1.364472565E1,-3.337010651E0,-8.322692871E-2,1.404710307E1
7.189382292E0,1.286754181E1,-3.834426270E0,-1.061293030E-1,1.342712629E1
7.199393292E0,1.199066528E1,-3.814218292E0,2.472857666E-1,1.258512874E1
7.209404292E0,1.114941467E1,-3.288212128E0,9.553134155E-1,1.166337902E1
7.219415292E0,1.072609497E1,-2.385289764E0,1.646875305E0,1.111084690E1
7.229426292E0,1.061263092E1,-1.595831451E0,2.001936951E0,1.091706758E1
7.239438292E0,1.051683014E1,-1.177152100E0,1.821562042E0,1.073813259E1
7.249449292E0,1.028586044E1,-1.379381561E0,1.145268402E0,1.044094145E1
7.259460292E0,9.780361633E0,-1.983225861E0,1.863624573E-1,9.981151710E0
7.269471292E0,9.411079559E0,-2.750081177E0,-6.394702148E-1,9.825491698E0
7.279482292E0,9.100325775E0,-3.440894623E0,-1.222657471E0,9.805640026E0
7.289493292E0,8.764424286E0,-3.990701294E0,-1.517693939E0,9.749062764E0
7.299505292E0,8.458011475E0,-4.212090912E0,-1.356179810E0,9.545621595E0
7.309516292E0,8.246800690E0,-4.126019897E0,-1.068927155E0,9.283122700E0
7.319527292E0,8.267906799E0,-4.018693085E0,-7.951464844E-1,9.227157465E0
7.329538292E0,8.300688629E0,-3.896247711E0,-5.288502502E-1,9.184871286E0
7.339549292E0,8.179440765E0,-3.640579376E0,-3.394940186E-1,8.959482441E0
7.349560292E0,7.811954956E0,-3.421734467E0,-1.942959595E-1,8.530689182E0
7.359572292E0,7.240892487E0,-3.175346832E0,-2.469863892E-2,7.906577106E0
7.369583292E0,6.590494995E0,-2.956202545E0,1.896556091E-1,7.225629870E0
7.379594292E0,5.924529877E0,-2.725831604E0,4.802014160E-1,6.539174687E0
7.389605292E0,5.332510986E0,-2.469265137E0,7.420069885E-1,5.923134146E0
7.399616292E0,4.857997742E0,-2.298919373E0,9.292675781E-1,5.454237854E0
7.409627292E0,4.487368469E0,-2.154170380E0,1.013991394E0,5.079872474E0
7.419639292E0,4.206402740E0,-2.080822906E0,9.548643494E-1,4.789093224E0
7.429650292E0,4.043391724E0,-2.049238586E0,8.307723999E-1,4.608533193E0
7.439661292E0,3.880231018E0,-1.968256989E0,6.203100586E-1,4.394884856E0
7.449672292E0,3.790567474E0,-1.832489319E0,3.339555359E-1,4.223499163E0
7.459683292E0,3.774401093E0,-1.786235504E0,7.888595581E-2,4.176477448E0
7.469694292E0,3.776047668E0,-1.703906708E0,-2.125579834E-1,4.148133913E0
7.479706292E0,3.862717438E0,-1.636696472E0,-5.248086548E-1,4.227858260E0
7.489717292E0,4.066294098E0,-1.594783630E0,-7.304809570E-1,4.428508208E0
7.499728292E0,4.278852081E0,-1.576970673E0,-8.635542297E-1,4.641243103E0
7.509739292E0,4.553530884E0,-1.537452850E0,-8.942404175E-1,4.888565301E0
7.519750292E0,4.747976532E0,-1.512754211E0,-8.403524780E-1,5.053503610E0
7.529761292E0,5.143005066E0,-1.474583588E0,-8.424481201E-1,5.416144080E0
7.539773292E0,5.285359039E0,-1.286125488E0,-8.038284302E-1,5.498661573E0
7.549784292E0,5.303022308E0,-1.230590973E0,-8.294252014E-1,5.506754571E0
7.559795292E0,5.469326477E0,-1.361867981E0,-8.443940735E-1,5.699229585E0
7.569806292E0,5.725294189E0,-1.493893433E0,-7.955955505E-1,5.970233113E0
7.579817292E0,6.123915253E0,-1.650617523E0,-8.108638000E-1,6.394089171E0
7.589829292E0,6.764882355E0,-1.783541107E0,-8.119116211E-1,7.043000258E0
7.599840292E0,7.557933197E0,-1.746418304E0,-7.815248108E-1,7.796352489E0
7.609851292E0,8.369246063E0,-1.758543091E0,-8.104147339E-1,8.590315798E0
7.619862292E0,9.398655396E0,-1.664388885E0,-9.363029480E-1,9.590702624E0
7.629873292E0,1.019724472E1,-1.481918335E0,-9.184899902E-1,1.034521656E1
7.639884292E0,1.087458618E1,-1.525777130E0,-8.503816223E-1,1.101398063E1
7.649896292E0,1.172511749E1,-1.620530090E0,-7.908055115E-1,1.186296217E1
7.659907292E0,1.247655487E1,-1.555116119E0,-6.942562866E-1,1.259225156E1
7.669918292E0,1.302621185E1,-1.492695923E0,-6.730004883E-1,1.312871913E1
7.679929292E0,1.357991043E1,-1.334474945E0,-8.205935669E-1,1.366997310E1
7.689940292E0,1.406699753E1,-1.052461395E0,-9.470805359E-1,1.413807116E1
7.699951292E0,1.439631271E1,-9.719288635E-1,-1.046773224E0,1.446700382E1
7.709963292E0,1.484433105E1,-1.235381012E0,-1.179696808E0,1.494228949E1
7.719974292E0,1.548080750E1,-2.041155396E0,-1.157842255E0,1.565765994E1
7.729985292E0,1.586416031E1,-2.977608032E0,-8.015830994E-1,1.616107259E1
7.739996292E0,1.618658981E1,-3.824097748E0,-1.986369324E-1,1.663336617E1
7.750007292E0,1.636756348E1,-4.196822662E0,6.438111877E-1,1.690931540E1
7.760018292E0,1.634840332E1,-3.662433929E0,1.634301453E0,1.683314156E1
7.770030292E0,1.647968033E1,-2.525398407E0,2.639760590E0,1.687974635E1
7.780041292E0,1.706017319E1,-1.179098053E0,3.413202209E0,1.743816879E1
7.790052292E0,1.742780869E1,1.721420288E-1,3.961661682E0,1.787324570E1
7.800063292E0,1.737017853E1,9.921368408E-1,4.110302582E0,1.787741662E1
7.810074292E0,1.711495926E1,1.164727936E0,3.979175262E0,1.761000447E1
7.820085292E0,1.648491943E1,9.574090576E-1,3.717369690E0,1.692595753E1
7.830097292E0,1.558783493E1,4.890330505E-1,3.295995941E0,1.593999186E1
7.840108292E0,1.477098358E1,1.886077881E-2,2.874771881E0,1.504814358E1
7.850119292E0,1.388332947E1,-1.824705505E-1,2.575993195E0,1.412146853E1
7.860130292E0,1.311333069E1,-2.140548706E-1,2.324366455E0,1.331945722E1
7.870141292E0,1.239347763E1,-7.035369873E-2,2.125579834E0,1.257463029E1
7.880152292E0,1.177676010E1,1.362167358E-1,1.888323212E0,1.192796705E1
7.890164292E0,1.126527374E1,4.417314148E-1,1.621128845E0,1.138988928E1
7.900175292E0,1.087099365E1,8.646020508E-1,1.343456268E0,1.098776203E1
7.910186292E0,1.048329987E1,1.253942413E0,1.152004395E0,1.062069027E1
7.920197292E0,1.007674530E1,1.537153473E0,1.042581940E0,1.024649275E1
7.930208292E0,9.815089417E0,1.820065155E0,9.458830261E-1,1.002712881E1
7.940219292E0,9.626182251E0,2.065704346E0,7.926017761E-1,9.877182632E0
7.950231292E0,9.472302246E0,2.148482208E0,5.840853882E-1,9.730449187E0
7.960242292E0,9.359436951E0,2.129471741E0,3.836521912E-1,9.606294756E0
7.970253292E0,9.239386597E0,2.077380066E0,2.264790344E-1,9.472753843E0
7.980264292E0,9.021140442E0,1.957928467E0,1.642085266E-1,9.232628185E0
7.990275292E0,8.841963043E0,1.780996399E0,1.838177490E-1,9.021421595E0
8.000286292E0,8.694519653E0,1.597178650E0,3.709286499E-1,8.847781626E0
8.010298292E0,8.665480042E0,1.339264984E0,6.565347290E-1,8.792906965E0
8.020309292E0,8.700058136E0,1.025517426E0,1.012494507E0,8.818607752E0
8.030320292E0,8.637937317E0,8.110134888E-1,1.415456543E0,8.790632582E0
8.040331417E0,8.723110199E0,5.899232483E-1,1.703008575E0,8.907350851E0
8.050342417E0,8.923244019E0,4.233197021E-1,1.899250488E0,9.132942341E0
8.060354417E0,9.142837372E0,2.921923828E-1,1.952389984E0,9.353538274E0
8.070365417E0,9.410929871E0,1.818717957E-1,1.932930450E0,9.609104979E0
8.080376417E0,9.664502563E0,1.342707825E-1,1.986818390E0,9.867526831E0
8.090387417E0,9.964029694E0,1.083746338E-1,2.003733215E0,1.016408282E1
8.100398417E0,1.051847672E1,1.627116394E-1,2.093696136E0,1.072606130E1
8.110409417E0,1.122276215E1,3.171903992E-1,2.147284698E0,1.143074064E1
8.120421417E0,1.185340073E1,3.950285339E-1,2.092348938E0,1.204313416E1
8.130432417E0,1.236862930E1,2.496807861E-1,1.885479126E0,1.251400667E1
8.140443417E0,1.276575348E1,1.573228455E-1,1.639241180E0,1.287153153E1
8.150454417E0,1.301214111E1,9.131011963E-2,1.303040314E0,1.307754059E1
8.160465417E0,1.299732193E1,-4.340972900E-3,9.189390564E-1,1.302976766E1
8.170476417E0,1.293999115E1,-1.657054138E-1,4.942721558E-1,1.295048780E1
8.180488417E0,1.285661453E1,-3.716770935E-1,2.281256104E-1,1.286400880E1
8.190499417E0,1.287742126E1,-6.770420837E-1,2.522254944E-1,1.289767352E1
8.200510417E0,1.293205765E1,-8.643026733E-1,5.222639465E-1,1.297142605E1
8.210521417E0,1.289613235E1,-1.114432526E0,8.849597168E-1,1.297441110E1
8.220532417E0,1.307830353E1,-1.471889191E0,1.059945831E0,1.320348311E1
8.230543417E0,1.310973816E1,-1.686243439E0,1.054856415E0,1.325976522E1
8.240555417E0,1.309252396E1,-1.987417145E0,1.031654663E0,1.328263234E1
8.250566417E0,1.289897644E1,-2.258054352E0,1.091530151E0,1.314054187E1
8.260577417E0,1.260109589E1,-2.372566223E0,1.300046539E0,1.288824305E1
8.270588417E0,1.240275833E1,-2.507136383E0,1.470541992E0,1.273878490E1
8.280599417E0,1.251891678E1,-2.731220398E0,1.446292419E0,1.289475102E1
8.290610417E0,1.306303528E1,-3.171155548E0,1.088686066E0,1.348645081E1
8.300622417E0,1.320703583E1,-3.620670776E0,7.144642639E-1,1.371296873E1
8.310633417E0,1.283730469E1,-3.871998138E0,3.876937866E-1,1.341413686E1
8.320644417E0,1.191372528E1,-3.588188324E0,4.197271729E-1,1.244942233E1
8.330655417E0,1.071382050E1,-2.981949005E0,8.180488586E-1,1.115110638E1
8.340666417E0,9.641749878E0,-2.274370422E0,1.295106812E0,9.990665803E0
8.350677417E0,9.097182312E0,-1.757195892E0,1.546134796E0,9.393454968E0
8.360689417E0,9.006770325E0,-1.590442657E0,1.420246582E0,9.255729030E0
8.370700417E0,8.945697327E0,-1.649569702E0,9.448352051E-1,9.145452117E0
8.380711417E0,9.212442627E0,-2.055675201E0,2.938389587E-1,9.443582002E0
8.390722417E0,9.607321472E0,-2.664459229E0,-4.471202087E-1,9.979974215E0
8.400733417E0,9.942025452E0,-3.247945862E0,-9.169931030E-1,1.049923325E1
8.410744417E0,1.009770172E1,-3.693569183E0,-1.246158600E0,1.082399855E1
8.420756417E0,1.001731888E1,-3.945944366E0,-1.286125488E0,1.084302878E1
8.430767417E0,9.817933502E0,-3.969295807E0,-1.042132874E0,1.064110748E1
8.440778417E0,9.452393646E0,-3.856430511E0,-6.267466736E-1,1.022803076E1
8.450789417E0,8.917106781E0,-3.722459106E0,-1.916015625E-1,9.664792098E0
8.460800417E0,8.397387543E0,-3.637286224E0,1.790277100E-1,9.153033352E0
8.470811417E0,7.577093353E0,-3.620072021E0,5.526507568E-1,8.415621664E0
8.480823417E0,6.753506012E0,-3.578907623E0,7.551795959E-1,7.680411412E0
8.490834417E0,6.123166809E0,-3.572471008E0,9.132508850E-1,7.147709287E0
8.500845417E0,5.598208466E0,-3.460653534E0,9.936337280E-1,6.656077591E0
8.510856417E0,5.319787445E0,-3.275787964E0,8.767268372E-1,6.308690450E0
8.520867417E0,5.133424988E0,-2.978805542E0,6.809339905E-1,5.974027591E0
8.530878417E0,4.989873505E0,-2.622696075E0,4.008663940E-1,5.651377369E0
8.540890417E0,4.832251282E0,-2.298470306E0,1.335223389E-1,5.352704589E0
8.550901417E0,4.848567352E0,-2.024689636E0,-1.204994202E-1,5.255710571E0
8.560912417E0,4.869823151E0,-1.825304260E0,-3.597019958E-1,5.213089169E0
8.570923417E0,4.804259491E0,-1.890718231E0,-5.909710693E-1,5.196630783E0
8.580934417E0,4.712350616E0,-1.890418854E0,-7.520361328E-1,5.132785805E0
8.590945417E0,4.561763763E0,-1.945953369E0,-7.152127075E-1,5.010783608E0
8.600957417E0,4.449048157E0,-2.048190765E0,-5.966592407E-1,4.934077134E0
8.610968417E0,4.520299988E0,-2.007774811E0,-4.044589233E-1,4.962646340E0
8.620979417E0,4.536316681E0,-2.029030609E0,-1.639091492E-1,4.972122329E0
8.630990417E0,4.535268860E0,-2.107168121E0,-3.787124634E-2,5.001025430E0
8.641001417E0,4.668791199E0,-2.146536255E0,3.083587646E-2,5.138694387E0
8.651012417E0,5.054389343E0,-2.088906097E0,3.218307495E-2,5.469133027E0
8.661024417E0,5.462590485E0,-1.910477142E0,4.490661621E-4,5.787038786E0
8.671035417E0,5.814209290E0,-1.803000641E0,-8.936416626E-2,6.088006811E0
8.681046417E0,6.115682373E0,-1.729802856E0,-1.380130005E-1,6.357109123E0
8.691057417E0,6.362219696E0,-1.695374451E0,-1.005908203E-1,6.585002088E0
8.701068417E0,6.723119202E0,-1.674418030E0,2.125579834E-2,6.928525048E0
8.711079417E0,7.265591125E0,-1.617686005E0,1.811233521E-2,7.443524063E0
8.721091417E0,8.172704773E0,-1.577569427E0,-1.053808594E-1,8.324237727E0
8.731102417E0,9.224717102E0,-1.309476929E0,-2.177970886E-1,9.319740930E0
8.741113417E0,1.030307465E1,-1.031954041E0,-5.150788879E-1,1.036742893E1
8.751124417E0,1.117710709E1,-7.824229431E-1,-9.360035706E-1,1.124348750E1
8.761135417E0,1.160596527E1,-7.140151978E-1,-1.301244049E0,1.170049074E1
8.771146417E0,1.194965057E1,-9.000782776E-1,-1.545985107E0,1.208281257E1
8.781158417E0,1.222148529E1,-1.222956848E0,-1.594334564E0,1.238556534E1
8.791169417E0,1.253987320E1,-1.451681213E0,-1.381926270E0,1.269903612E1
8.801180417E0,1.289478516E1,-1.612297211E0,-8.711883545E-1,1.302436009E1
8.811191417E0,1.327170135E1,-1.591789856E0,-2.140548706E-1,1.336853288E1
8.821202417E0,1.370819366E1,-1.562750244E0,3.995191956E-1,1.380276702E1
8.831213417E0,1.425874878E1,-1.633253632E0,8.358618164E-1,1.437630339E1
8.841225417E0,1.491947479E1,-1.800156555E0,1.089434509E0,1.506712180E1
8.851236417E0,1.560280380E1,-2.191143494E0,1.057999878E0,1.579138879E1
8.861247417E0,1.587673416E1,-2.548300781E0,9.821076965E-1,1.610990565E1
8.871258417E0,1.605651031E1,-2.506986694E0,1.060993652E0,1.628564439E1
8.881269417E0,1.624556717E1,-2.032323761E0,1.302591248E0,1.642393182E1
8.891280417E0,1.654733963E1,-1.181044006E0,1.500928802E0,1.665719367E1
8.901292417E0,1.686812256E1,-3.549119568E-1,1.703307953E0,1.695761714E1
8.911303417E0,1.699266357E1,3.649411011E-1,1.873054962E0,1.709947754E1
8.921314417E0,1.699296295E1,7.861651611E-1,1.909129944E0,1.711793278E1
8.931325417E0,1.646246613E1,9.089099121E-1,1.954934692E0,1.660303219E1
8.941336417E0,1.553259979E1,6.971003723E-1,1.986818390E0,1.567466276E1
8.951347417E0,1.445663727E1,2.281256104E-1,2.017354889E0,1.459849729E1
8.961359417E0,1.334819229E1,-1.910028076E-1,2.146685944E0,1.352105691E1
8.971370417E0,1.257819351E1,-4.712200928E-1,2.324366455E0,1.279983124E1
8.981381417E0,1.195938034E1,-5.161267090E-1,2.444416809E0,1.221754224E1
8.991392417E0,1.150522476E1,-3.065625000E-1,2.361339569E0,1.174904685E1
9.001403417E0,1.118474121E1,-4.176315308E-2,2.075134735E0,1.137569182E1
9.011414417E0,1.089733887E1,2.739303589E-1,1.629810791E0,1.102194699E1
9.021426417E0,1.042956161E1,6.885681152E-1,1.205742645E0,1.052158243E1
9.031437417E0,9.874216461E0,1.043929138E0,8.235873413E-1,9.963344563E0
9.041448209E0,9.249565430E0,1.304537201E0,5.381309509E-1,9.356594619E0
9.051459209E0,8.665629730E0,1.455423431E0,4.766088867E-1,8.799917728E0
9.061470208E0,8.193361816E0,1.488205261E0,4.420307922E-1,8.339144079E0
9.071481208E0,7.822133789E0,1.464554443E0,4.719685364E-1,7.972041836E0
9.081493208E0,7.624694366E0,1.392703857E0,5.890251160E-1,7.773193604E0
9.091504208E0,7.556885376E0,1.307081909E0,7.843688965E-1,7.709099446E0
9.101515208E0,7.592211914E0,1.244811401E0,9.189390564E-1,7.748269882E0
9.111526208E0,7.703879700E0,1.191821594E0,9.764195251E-1,7.856436611E0
9.121537209E0,7.799231415E0,1.109043732E0,9.937834167E-1,7.940125575E0
9.131548208E0,7.864495697E0,1.061293030E0,9.687854004E-1,7.994697031E0
9.141560209E0,7.902067566E0,9.996212769E-1,8.815168762E-1,8.013674969E0
9.151571209E0,7.857460327E0,9.023236084E-1,7.985893250E-1,7.949315417E0
9.161582208E0,7.842790833E0,8.062234497E-1,7.557783508E-1,7.920262951E0
9.171593208E0,7.873327332E0,7.333250427E-1,7.994874573E-1,7.947718483E0
9.181604208E0,8.006699982E0,6.165678406E-1,9.737251282E-1,8.089223765E0
9.191615209E0,8.266110535E0,3.707789612E-1,1.278042297E0,8.372541581E0
9.201627208E0,8.558901672E0,1.170565796E-1,1.690135345E0,8.724967482E0
9.211638208E0,9.116492157E0,-1.785786438E-1,2.115999756E0,9.360543496E0
9.221649209E0,9.631271667E0,-3.664379883E-1,2.487078094E0,9.953955404E0
9.231660208E0,1.014470398E1,-4.586462402E-1,2.553090820E0,1.047108628E1
9.241671208E0,1.085722229E1,-4.397854614E-1,2.442770233E0,1.113731626E1
9.251682208E0,1.153755753E1,-3.023712158E-1,2.257904663E0,1.176030593E1
9.261694208E0,1.226788879E1,-1.728904724E-1,1.991159363E0,1.242963001E1
9.271705208E0,1.304432419E1,-7.499404907E-2,1.660946045E0,1.314985777E1
9.281716208E0,1.358829300E1,-9.325607300E-2,1.254990234E0,1.364644290E1
9.291727209E0,1.388976608E1,-2.845582581E-1,8.201445007E-1,1.391686790E1
9.301738209E0,1.396550858E1,-5.387297058E-1,4.775070190E-1,1.398405064E1
9.311749208E0,1.380833542E1,-7.680528259E-1,3.588038635E-1,1.383433310E1
9.321761209E0,1.362646362E1,-8.675958252E-1,3.643423462E-1,1.365891572E1
9.331772208E0,1.366089203E1,-9.264234924E-1,5.057981873E-1,1.370160806E1
9.341783208E0,1.398945877E1,-9.711804199E-1,6.800358582E-1,1.403960815E1
9.351794208E0,1.442340637E1,-9.027726746E-1,8.113128662E-1,1.447438698E1
9.361805208E0,1.457578949E1,-8.683442688E-1,7.936495972E-1,1.462318504E1
9.371816209E0,1.471739502E1,-8.675958252E-1,7.538323975E-1,1.476220519E1
9.381828208E0,1.473670486E1,-1.019529877E0,5.801934814E-1,1.478331952E1
9.391839209E0,1.478700027E1,-1.268162842E0,2.683918762E-1,1.484370736E1
9.401850208E0,1.477756989E1,-1.461410980E0,-1.556762695E-2,1.484966451E1
9.411861208E0,1.476918732E1,-1.718127136E0,-1.239422607E-1,1.486930451E1
9.421872208E0,1.444331497E1,-1.857786713E0,1.236428833E-1,1.456282962E1
9.431883208E0,1.405038208E1,-1.704804840E0,7.180567932E-1,1.417163370E1
9.441895208E0,1.365550323E1,-1.300196228E0,1.438658295E0,1.379249856E1
9.451906208E0,1.335747299E1,-9.045689392E-1,2.102527771E0,1.355215676E1
9.461917209E0,1.325194244E1,-5.908213806E-1,2.508184204E0,1.350014950E1
9.471928209E0,1.313638275E1,-4.695735168E-1,2.539319458E0,1.338780021E1
9.481939208E0,1.293624893E1,-7.885601807E-1,2.191592560E0,1.314425508E1
9.491950208E0,1.271336243E1,-1.154998169E0,1.740131378E0,1.288377515E1
9.501962208E0,1.235770203E1,-1.327289886E0,1.354233856E0,1.250233767E1
9.511973208E0,1.194515991E1,-1.461710358E0,1.070274353E0,1.208176021E1
9.521984208E0,1.149908752E1,-1.473835144E0,8.997789001E-1,1.162801815E1
9.531995208E0,1.109013794E1,-1.462159424E0,7.728428650E-1,1.121277645E1
9.542006209E0,1.074510544E1,-1.429527283E0,6.110293579E-1,1.085698835E1
9.552017208E0,1.056383240E1,-1.418150940E0,3.842509460E-1,1.066552183E1
9.562029209E0,1.054078033E1,-1.362317047E0,7.424560547E-2,1.062870972E1
9.572040209E0,1.032088760E1,-1.228345642E0,-2.894979858E-1,1.039775760E1
9.582051208E0,9.908046112E0,-1.059646454E0,-6.530918884E-1,9.985927968E0
9.592062208E0,9.454788666E0,-8.276289368E-1,-9.098080444E-1,9.534450642E0
9.602073208E0,8.945098572E0,-5.734574890E-1,-8.720864868E-1,9.005785740E0
9.612084209E0,8.463400269E0,-4.243675232E-1,-5.965095520E-1,8.495001798E0
9.622096208E0,7.897427216E0,-5.221142578E-1,-2.089654541E-1,7.917425496E0
9.632107208E0,7.352859650E0,-7.264393616E-1,1.116677856E-1,7.389501260E0
9.642118209E0,6.817423096E0,-9.014254761E-1,3.405418396E-1,6.885186584E0
9.652129208E0,6.380930786E0,-9.852511597E-1,4.665797424E-1,6.473383520E0
9.662140208E0,5.982309723E0,-9.080117798E-1,4.909790039E-1,6.070714570E0
9.672151208E0,5.915249176E0,-6.538403320E-1,3.447331238E-1,5.961251624E0
9.682162208E0,5.956563263E0,-3.085084534E-1,1.580712891E-1,5.966641426E0
9.692174208E0,5.997278595E0,3.742218018E-3,-3.562591553E-2,5.997385577E0
9.702185208E0,6.042035522E0,4.484674072E-1,-2.122586060E-1,6.062373296E0
9.712196209E0,5.871390381E0,6.996450806E-1,-4.584965515E-1,5.930678488E0
9.722207209E0,5.433101807E0,7.309300232E-1,-7.198530579E-1,5.529108641E0
9.732218208E0,5.082081757E0,8.870553589E-1,-9.633966064E-1,5.248100153E0
9.742229208E0,4.990472260E0,1.163829803E0,-1.081950073E0,5.237358986E0
9.752241208E0,4.997357941E0,1.470541992E0,-1.053658905E0,5.314722686E0
9.762252208E0,4.950505371E0,1.774559784E0,-1.125958557E0,5.378136157E0
9.772263208E0,4.987777863E0,1.953288116E0,-1.268162842E0,5.504679779E0
9.782274208E0,5.134173431E0,2.239193573E0,-1.146166534E0,5.717291527E0
9.792285209E0,5.404660950E0,2.566562805E0,-8.970845032E-1,6.049988861E0
9.802296208E0,5.812562714E0,2.995420990E0,-6.312373352E-1,6.569390594E0
9.812308209E0,6.095175018E0,3.419938202E0,-5.002597046E-1,7.006953374E0
9.822319208E0,6.409371643E0,3.755390625E0,-6.143225098E-1,7.453884608E0
9.832330208E0,6.347849579E0,4.081262970E0,-1.034498749E0,7.617223206E0
9.842341208E0,6.090983734E0,4.019591217E0,-1.350192261E0,7.421604647E0
9.852352208E0,5.747747498E0,3.659440155E0,-1.519490204E0,6.981185718E0
9.862363209E0,5.687722321E0,3.320095825E0,-1.546883240E0,6.765062397E0
9.872375208E0,5.951174469E0,3.189567261E0,-1.475631409E0,6.911389508E0
9.882386209E0,6.143524475E0,3.063529358E0,-1.383123779E0,7.002937704E0
9.892397209E0,6.419251099E0,2.974015503E0,-1.124611359E0,7.163539878E0
9.902408208E0,6.906787262E0,3.044219513E0,-7.060816956E-1,7.580866315E0
9.912419208E0,7.523804169E0,3.456911316E0,-3.372486877E-1,8.286833032E0
9.922430208E0,7.888745270E0,3.822002106E0,-1.775308228E-1,8.767640459E0
9.932442208E0,8.160280609E0,3.836821289E0,-2.763253784E-1,9.021515002E0
9.942453208E0,8.394693146E0,3.379073181E0,-5.532495117E-1,9.066150980E0
9.952464208E0,8.439599762E0,2.578687592E0,-7.120692444E-1,8.853446586E0
9.962475209E0,8.176446991E0,1.905986481E0,-5.077441406E-1,8.410997204E0
9.972486208E0,7.982151031E0,1.550625458E0,-8.996292114E-2,8.131867419E0
9.982497208E0,8.023465118E0,1.729054413E0,5.255570984E-1,8.224465450E0
9.992509209E0,8.405021667E0,2.094594269E0,9.848020935E-1,8.717886759E0
1.000252021E1,8.870852966E0,2.313289490E0,1.259480896E0,9.253628085E0
1.001253121E1,9.056916046E0,2.294728088E0,1.242416382E0,9.425343693E0
1.002254221E1,9.135951691E0,1.859582977E0,8.689430237E-1,9.363691800E0
1.003255321E1,9.229806519E0,1.335522766E0,4.635859680E-1,9.337444050E0
1.004256479E1,9.204209747E0,9.334588623E-1,3.463796997E-1,9.257904807E0
1.005257579E1,9.031618652E0,5.412744141E-1,4.152365112E-1,9.057347009E0
1.006258779E1,8.850345612E0,1.092727661E-1,6.048921204E-1,8.871665709E0
1.007259879E1,8.695866852E0,-3.156935120E-1,8.878038025E-1,8.746768448E0
1.008260979E1,8.829688568E0,-6.307882690E-1,1.240620117E0,8.938704175E0
1.009262079E1,9.110354919E0,-7.521858215E-1,1.701212311E0,9.298304877E0
1.010263179E1,9.305848389E0,-7.937992859E-1,2.025737457E0,9.556806150E0
1.011264279E1,9.441466370E0,-8.047265625E-1,2.286345520E0,9.747627808E0
1.012265479E1,9.555978241E0,-7.647596741E-1,2.412832489E0,9.885511526E0
1.013266579E1,9.639055481E0,-6.276448059E-1,2.399510193E0,9.953038618E0
1.014267679E1,9.754166107E0,-4.526586914E-1,2.327060852E0,1.003812077E1
1.015268779E1,9.931996307E0,-2.505789185E-1,2.210603027E0,1.017811899E1
1.016269879E1,1.002884491E1,-4.760101318E-2,2.002535706E0,1.022693235E1
1.017270979E1,9.944121094E0,1.736389160E-2,1.697320404E0,1.008795036E1
1.018272179E1,9.797575836E0,2.140548706E-2,1.268761597E0,9.879408203E0
1.019273279E1,9.632319489E0,1.422042847E-2,8.047265625E-1,9.665886705E0
1.020274379E1,9.488468628E0,2.619552612E-2,4.363426208E-1,9.498532413E0
1.021275479E1,9.470505981E0,4.281097412E-2,1.752854919E-1,9.472224730E0
1.022276579E1,9.481133881E0,7.723937988E-2,-7.140151978E-2,9.481717342E0
1.023277679E1,9.449250183E0,1.203497314E-1,-2.174977112E-1,9.452519153E0
1.024278879E1,9.497599640E0,1.724414062E-1,-2.332150269E-1,9.502027374E0
1.025279979E1,9.475146332E0,3.008743286E-1,-1.137634277E-1,9.480604701E0
1.026281079E1,9.274114380E0,2.571652222E-1,1.252894592E-1,9.278525148E0
1.027282179E1,9.171727295E0,8.023315430E-2,3.131488037E-1,9.177422356E0
1.028283279E1,9.119336243E0,-1.676513672E-1,5.429209900E-1,9.137021598E0
1.029284379E1,9.179511108E0,-4.824467468E-1,6.824308777E-1,9.217477472E0
1.030285579E1,9.276359711E0,-8.330177307E-1,7.321275330E-1,9.342418249E0
1.031286679E1,9.540111237E0,-1.069675598E0,7.057823181E-1,9.625801628E0
1.032287779E1,9.987381134E0,-1.149309998E0,6.378236389E-1,1.007350557E1
1.033288879E1,1.043075912E1,-1.164727936E0,4.930746460E-1,1.050716183E1
1.034289979E1,1.064601151E1,-1.305884399E0,3.975732422E-1,1.073317099E1
1.035291079E1,1.082009949E1,-1.586700439E0,3.662882996E-1,1.094195313E1
1.036292179E1,1.102607117E1,-1.836231537E0,4.908293152E-1,1.118869541E1
1.037293379E1,1.142888351E1,-2.077529755E0,5.866300964E-1,1.163097774E1
1.038294479E1,1.198377960E1,-2.365830231E0,6.327342224E-1,1.223145449E1
1.039295579E1,1.254945328E1,-2.584375763E0,7.497908020E-1,1.283471706E1
1.040296679E1,1.311063629E1,-2.717299347E0,7.875123596E-1,1.341240752E1
1.041297779E1,1.368544098E1,-2.759661255E0,7.011419678E-1,1.397850582E1
1.042298879E1,1.399679352E1,-2.689906311E0,5.683680725E-1,1.426425137E1
1.043300079E1,1.413660278E1,-2.546055450E0,4.107458496E-1,1.436992167E1
1.044301179E1,1.434017944E1,-2.375859375E0,3.456312561E-1,1.453977012E1
1.045302279E1,1.481304611E1,-2.207160187E0,2.806663513E-1,1.497920775E1
1.046303379E1,1.546748520E1,-1.958227844E0,1.155596924E-1,1.559137931E1
1.047304479E1,1.597747467E1,-1.883832550E0,-1.664538574E-1,1.608900957E1
1.048305579E1,1.674822189E1,-2.110461273E0,-4.662803650E-1,1.688710753E1
1.049306779E1,1.727886841E1,-2.355801086E0,-6.036946106E-1,1.744917016E1
1.050307879E1,1.698278412E1,-2.106569366E0,-3.460803223E-1,1.711643545E1
1.051308979E1,1.571372314E1,-1.401385803E0,5.456153870E-1,1.578552100E1
1.052310079E1,1.453702011E1,-5.736071777E-1,1.522783356E0,1.462781077E1
1.053311179E1,1.364742004E1,1.276844788E-1,2.320773926E0,1.384392895E1
1.054312279E1,1.303459442E1,6.017486572E-1,2.859204254E0,1.335806132E1
1.055313479E1,1.274644363E1,6.646179199E-1,2.782114563E0,1.306344915E1
1.056314579E1,1.261471756E1,3.246748352E-1,2.111060028E0,1.279425994E1
1.057315679E1,1.251277954E1,-1.697470093E-1,1.214274902E0,1.257270573E1
1.058316779E1,1.219259537E1,-5.372328186E-1,4.105961609E-1,1.221133040E1
1.059317879E1,1.204949295E1,-6.903643799E-1,-3.201841736E-1,1.207349996E1
1.060318979E1,1.191612030E1,-5.761518860E-1,-7.973918152E-1,1.195665955E1
1.061320179E1,1.162198196E1,-4.158352661E-1,-1.002615051E0,1.167255845E1
1.062321279E1,1.125584335E1,-4.899311829E-1,-8.714877319E-1,1.130015633E1
1.063322379E1,1.068717590E1,-9.954299927E-1,-5.357359314E-1,1.074679592E1
1.064323479E1,9.888736267E0,-1.706451416E0,-8.562194824E-2,1.003525847E1
1.065324579E1,9.068891144E0,-2.270179138E0,3.477268982E-1,9.355181126E0
1.066325679E1,8.298443298E0,-2.457140350E0,7.578739929E-1,8.687696638E0
1.067326879E1,7.530989227E0,-2.354603577E0,1.017134857E0,7.955785320E0
1.068327979E1,6.744973755E0,-2.381697235E0,1.170266418E0,7.248218827E0
1.069329079E1,6.275699615E0,-2.118843842E0,1.244512024E0,6.739637606E0
1.070330179E1,6.083798676E0,-1.612596588E0,1.239123230E0,6.414709694E0
1.071331279E1,5.583838348E0,-1.361718292E0,1.041534119E0,5.841089002E0
1.072332379E1,5.270988922E0,-1.472188568E0,6.848258972E-1,5.515401156E0
1.073333479E1,5.359305267E0,-1.466500397E0,5.246589661E-1,5.581043217E0
1.074334679E1,5.610333252E0,-1.400936737E0,5.845344543E-1,5.812068777E0
1.075335779E1,5.993386688E0,-1.359173584E0,8.614585876E-1,6.205654496E0
1.076336879E1,6.533463593E0,-1.228345642E0,1.220412140E0,6.759022512E0
1.077337979E1,7.181765442E0,-1.106349335E0,1.365759888E0,7.393717859E0
1.078339079E1,7.713310089E0,-9.936337280E-1,1.426982574E0,7.906879270E0
1.079340179E1,7.904013519E0,-9.172924805E-1,1.441652069E0,8.086607193E0
1.080341379E1,7.991731110E0,-1.006806335E0,1.400188293E0,8.175692777E0
1.081342479E1,8.038284302E0,-1.039438477E0,8.352630615E-1,8.148135446E0
1.082343579E1,7.727680206E0,-9.382489014E-1,4.297563171E-1,7.796283914E0
1.083344679E1,7.443421326E0,-7.502398682E-1,1.541793823E-2,7.481150888E0
1.084345779E1,7.566764832E0,-6.011499023E-1,-3.556604004E-1,7.598934500E0
1.085346879E1,7.623197479E0,-4.936734009E-1,-4.876858521E-1,7.654716894E0
1.086348079E1,7.733518066E0,-3.896397400E-1,-5.914201355E-1,7.765880413E0
1.087349179E1,7.807613983E0,-1.682501221E-1,-5.477110291E-1,7.828609812E0
1.088350279E1,8.073012085E0,-4.745132446E-2,-3.851490784E-1,8.082333547E0
1.089351379E1,8.455317078E0,-1.035845947E-1,2.065704346E-2,8.455976784E0
1.090352479E1,8.832532654E0,-3.514691162E-1,4.843927002E-1,8.852784867E0
1.091353579E1,9.182804260E0,-7.572752380E-1,9.105564880E-1,9.258859162E0
1.092354779E1,9.559870148E0,-1.089284821E0,1.202898560E0,9.696629497E0
1.093355879E1,1.001178040E1,-1.253044281E0,1.211281128E0,1.016233579E1
1.094356979E1,1.050216064E1,-1.211730194E0,8.755293274E-1,1.060802620E1
1.095358079E1,1.088611221E1,-1.080902252E0,4.164340210E-1,1.094756622E1
1.096359179E1,1.121827148E1,-1.027613068E0,6.810836792E-2,1.126544462E1
1.097360279E1,1.148411865E1,-1.081501007E0,-4.400848389E-2,1.153501462E1
1.098361379E1,1.174293045E1,-1.194665680E0,9.190887451E-2,1.180390143E1
1.099362579E1,1.202913528E1,-1.316512299E0,3.278182983E-1,1.210540231E1
1.100363679E1,1.251352798E1,-1.269959106E0,6.255491638E-1,1.259335104E1
1.101364779E1,1.319865326E1,-1.244961090E0,1.000220032E0,1.329491693E1
1.102365879E1,1.399829041E1,-1.265618134E0,1.237177277E0,1.410973179E1
1.103366979E1,1.471065903E1,-1.339264984E0,1.262025604E0,1.482531040E1
1.104368092E1,1.519505173E1,-1.659149780E0,9.445358276E-1,1.531452000E1
1.105369292E1,1.524729309E1,-2.148033142E0,5.430706787E-1,1.540743063E1
1.106370392E1,1.505614059E1,-2.410287781E0,4.740641785E-1,1.525521529E1
1.107371492E1,1.494267654E1,-2.131118317E0,8.506809998E-1,1.511783403E1
1.108372592E1,1.507140884E1,-1.437161407E0,1.437909851E0,1.520790525E1
1.109373692E1,1.520059021E1,-6.511459351E-1,1.981429596E0,1.534301134E1
1.110374792E1,1.525881912E1,-9.610015869E-2,2.392175446E0,1.544549448E1
1.111375992E1,1.521795410E1,-1.640588379E-1,2.483934631E0,1.542021315E1
1.112377092E1,1.475391907E1,-8.623567200E-1,2.248923340E0,1.494922885E1
1.113378192E1,1.392614044E1,-1.773062897E0,1.863923950E0,1.416175668E1
1.114379292E1,1.297426987E1,-2.618654480E0,1.534758453E0,1.332458305E1
1.115380392E1,1.240560242E1,-3.005749512E0,1.317859497E0,1.283239086E1
1.116381492E1,1.214080307E1,-2.885399780E0,1.675615540E0,1.259096178E1
1.117382692E1,1.211790070E1,-2.656376038E0,1.923200684E0,1.255382618E1
1.118383792E1,1.219708603E1,-2.302811279E0,2.060764618E0,1.258247186E1
1.119384892E1,1.223211319E1,-2.069895630E0,2.031575317E0,1.257125130E1
1.120385992E1,1.235291199E1,-1.760638733E0,1.883533173E0,1.261911172E1
1.121387092E1,1.242042160E1,-1.399739227E0,1.628613281E0,1.260470245E1
1.122388192E1,1.243045074E1,-1.088835754E0,1.362317047E0,1.255219410E1
1.123389292E1,1.217523148E1,-8.405021667E-1,1.372944946E0,1.228119226E1
1.124390492E1,1.195459030E1,-6.608757019E-1,1.430126038E0,1.205795366E1
1.125391592E1,1.166913391E1,-6.002517700E-1,1.385668488E0,1.176643810E1
1.126392692E1,1.130778534E1,-7.343728638E-1,1.383123779E0,1.141570603E1
1.127393792E1,1.090497299E1,-9.500743103E-1,1.512005768E0,1.105021441E1
1.128394892E1,1.042656784E1,-1.075663147E0,1.616488495E0,1.060581931E1
1.129395992E1,9.964927826E0,-1.193767548E0,1.536255341E0,1.015307579E1
1.130397192E1,9.455836487E0,-1.261127472E0,1.294058990E0,9.626934862E0
1.131398292E1,9.008267212E0,-1.188827820E0,1.022373962E0,9.143710312E0
1.132399392E1,8.728498993E0,-1.088237000E0,8.123606873E-1,8.833509174E0
1.133400492E1,8.459059296E0,-9.993218994E-1,7.625143433E-1,8.551944606E0
1.134401592E1,8.122858429E0,-9.240284729E-1,7.957452393E-1,8.213882648E0
1.135402692E1,7.714058533E0,-8.863069153E-1,8.289761353E-1,7.808933373E0
1.136403892E1,7.329508209E0,-9.259744263E-1,7.711962891E-1,7.427911075E0
1.137404992E1,6.889573059E0,-9.352551270E-1,7.071295166E-1,6.988630141E0
1.138406092E1,6.531218262E0,-9.125024414E-1,5.129832458E-1,6.614576668E0
1.139407192E1,6.383924561E0,-8.693920898E-1,2.001338196E-1,6.445959118E0
1.140408292E1,6.229445801E0,-7.786807251E-1,-1.889071655E-1,6.280766241E0
1.141409392E1,6.047274628E0,-7.059320068E-1,-6.483018494E-1,6.122758015E0
1.142410492E1,5.868995361E0,-6.732998657E-1,-9.394464111E-1,5.981722061E0
1.143411692E1,5.787564697E0,-6.794371033E-1,-1.048719177E0,5.920924912E0
1.144412792E1,5.695506134E0,-5.984555054E-1,-9.078620911E-1,5.798375004E0
1.145413892E1,5.708828430E0,-5.900729370E-1,-7.587721252E-1,5.789183298E0
1.146414992E1,5.714815979E0,-7.444020081E-1,-5.894741821E-1,5.793162852E0
1.147416092E1,5.642815704E0,-8.696914673E-1,-5.266049194E-1,5.733676400E0
1.148417192E1,5.604645081E0,-1.022224274E0,-6.737489319E-1,5.736804561E0
1.149418392E1,5.594915314E0,-1.246158600E0,-8.717871094E-1,5.797930785E0
1.150419492E1,5.665568390E0,-1.478924561E0,-1.001567230E0,5.940456207E0
1.151420592E1,5.767356720E0,-1.644031219E0,-1.062490540E0,6.090494917E0
1.152421692E1,5.766907654E0,-1.961670685E0,-9.440867615E-1,6.164144351E0
1.153422792E1,5.673801270E0,-2.227517853E0,-6.441105652E-1,6.129333981E0
1.154423892E1,5.749693451E0,-2.362686768E0,-2.577639771E-1,6.221551720E0
1.155425092E1,6.091582489E0,-2.472857666E0,1.636097717E-1,6.576410146E0
1.156426192E1,6.563700714E0,-2.646197205E0,3.487747192E-1,7.085631271E0
1.157427292E1,7.059918823E0,-2.788251801E0,3.098556519E-1,7.596894920E0
1.158428392E1,7.512278137E0,-2.858306122E0,9.460327148E-2,8.038232796E0
1.159429492E1,8.040829010E0,-2.802023163E0,-1.187031555E-1,8.515888410E0
1.160430592E1,8.437204742E0,-2.438279572E0,-2.092648315E-1,8.784954348E0
1.161431692E1,8.724008331E0,-1.919308777E0,-2.345622253E-1,8.935719724E0
1.162432892E1,9.229207764E0,-1.406026154E0,-1.951940918E-1,9.337734534E0
1.163433992E1,9.955647125E0,-1.061742096E0,-1.303788757E-1,1.001295184E1
1.164435092E1,1.056458084E1,-1.099463654E0,-2.206411743E-1,1.062392918E1
1.165436192E1,1.095571747E1,-1.396446075E0,-4.309538269E-1,1.105276111E1
1.166437292E1,1.138322845E1,-1.962568817E0,-7.012916565E-1,1.157244038E1
1.167438392E1,1.160970749E1,-2.528242493E0,-8.291258240E-1,1.191069972E1
1.168439592E1,1.174951675E1,-2.906805267E0,-7.204518127E-1,1.212516852E1
1.169440692E1,1.189576263E1,-3.040327606E0,-3.150947571E-1,1.228218406E1
1.170441792E1,1.200877762E1,-2.834505615E0,1.950444031E-1,1.234030811E1
1.171442892E1,1.192061096E1,-2.531685333E0,5.638774109E-1,1.219952270E1
1.172443992E1,1.175071426E1,-2.278262329E0,6.746470642E-1,1.198853259E1
1.173445092E1,1.149609375E1,-2.125579834E0,5.481600952E-1,1.170379172E1
1.174446192E1,1.107906097E1,-1.999242554E0,2.915936279E-1,1.126177560E1
1.175447392E1,1.060993652E1,-1.854044495E0,9.535171509E-2,1.077113392E1
1.176448492E1,1.028660889E1,-1.564247131E0,6.721023560E-2,1.040508091E1
1.177449592E1,9.954449615E0,-1.087338867E0,8.652008057E-2,1.001403309E1
1.178450692E1,9.652976532E0,-6.896159363E-1,9.565109253E-2,9.678051209E0
1.179451792E1,9.481732635E0,-4.186793518E-1,1.326242065E-1,9.491898406E0
1.180452892E1,9.358838196E0,-1.463955688E-1,3.005749512E-1,9.364808025E0
1.181454092E1,9.351952515E0,-2.484832764E-2,4.222718811E-1,9.361514131E0
1.182455192E1,9.376202087E0,6.646179199E-2,5.038522339E-1,9.389965379E0
1.183456292E1,9.245374146E0,7.125183105E-2,5.930667114E-1,9.264650454E0
1.184457392E1,9.071735229E0,-1.067280579E-1,7.303312683E-1,9.101711636E0
1.185458492E1,8.893755341E0,-2.784210205E-1,9.015751648E-1,8.943670393E0
1.186459592E1,8.728199615E0,-4.354444885E-1,1.086590424E0,8.806347664E0
1.187460792E1,8.607251129E0,-5.613327026E-1,1.263522491E0,8.717588858E0
1.188461892E1,8.401878204E0,-5.535488892E-1,1.336570587E0,8.525514335E0
1.189462992E1,8.471333771E0,-4.614903259E-1,1.264720001E0,8.577644540E0
1.190464092E1,8.729247437E0,-2.980302429E-1,1.156944122E0,8.810624412E0
1.191465192E1,9.147777100E0,-1.245410156E-1,1.032702484E0,9.206726386E0
1.192466292E1,9.356592865E0,-2.020797729E-2,8.741821289E-1,9.397363077E0
1.193467392E1,9.434580688E0,-2.799179077E-2,8.319699097E-1,9.471233829E0
1.194468592E1,9.579629059E0,-8.846603394E-2,8.045768738E-1,9.613764252E0
1.195469692E1,9.787995758E0,-1.080752563E-1,6.375242615E-1,9.809331190E0
1.196470792E1,9.917177124E0,-2.409988403E-2,4.849914551E-1,9.929058345E0
1.197471892E1,1.006551865E1,7.619155884E-2,3.626957703E-1,1.007233930E1
1.198472992E1,1.031834290E1,1.395098877E-1,2.098635864E-1,1.032141976E1
1.199474092E1,1.061098434E1,2.160008240E-1,1.468446350E-1,1.061419844E1
1.200475292E1,1.079270645E1,3.709286499E-1,3.293151855E-2,1.079912890E1
1.201476392E1,1.096799194E1,2.656974792E-1,-8.352630615E-2,1.097152765E1
1.202477492E1,1.125135269E1,-4.385879517E-2,6.481521606E-2,1.125162486E1
1.203478592E1,1.128593079E1,-2.637515259E-1,4.436773682E-1,1.129772757E1
1.204479642E1,1.144534927E1,-3.689826965E-1,6.051914978E-1,1.146727627E1
1.205480742E1,1.223780136E1,-2.300715637E-1,7.482939148E-1,1.226281611E1
1.206481842E1,1.337468719E1,1.553768921E-1,7.000941467E-1,1.339389903E1
1.207483042E1,1.450034637E1,6.665638733E-1,5.019062805E-1,1.452433345E1
1.208484142E1,1.507335480E1,1.133892059E0,2.182461548E-1,1.511751856E1
1.209485242E1,1.558678711E1,1.220861206E0,-4.805007935E-2,1.563460084E1
1.210486342E1,1.673609711E1,7.753875732E-1,-1.496887207E-1,1.675471811E1
1.211487442E1,1.802132446E1,-8.262817383E-2,5.688171387E-3,1.802151479E1
1.212488542E1,1.899115768E1,-8.922944641E-1,4.914280701E-1,1.901845843E1
1.213489742E1,1.941193268E1,-8.752299500E-1,1.427581329E0,1.948402284E1
1.214490842E1,1.934876404E1,7.349716187E-2,2.495161285E0,1.950912354E1
1.215491942E1,1.887380173E1,1.446741486E0,3.474574585E0,1.924541818E1
1.216493042E1,1.835498062E1,2.400258636E0,3.929628296E0,1.892375580E1
1.217494142E1,1.767299881E1,2.555635529E0,3.912563782E0,1.828043531E1
1.218495242E1,1.616368744E1,2.013313293E0,3.573967896E0,1.667607473E1
1.219496342E1,1.406445282E1,6.912625122E-1,2.754571838E0,1.434832196E1
1.220497542E1,1.202494400E1,-8.783734131E-1,1.818867645E0,1.219340386E1
1.221498642E1,1.031370255E1,-2.069446564E0,1.420995026E0,1.061481494E1
1.222499742E1,9.254954224E0,-2.717299347E0,1.373394012E0,9.742900212E0
1.223500842E1,8.772507477E0,-2.794538727E0,1.556313629E0,9.337475367E0
1.224501942E1,8.963210907E0,-2.483335876E0,1.874102783E0,9.487801014E0
1.225503042E1,9.570647736E0,-1.942061462E0,2.240690460E0,1.001946079E1
1.226504242E1,1.013512390E1,-1.399140472E0,2.352358246E0,1.049818650E1
1.227505342E1,1.062325882E1,-1.049916687E0,2.160906372E0,1.089153200E1
1.228506442E1,1.116198853E1,-9.659413147E-1,1.923649750E0,1.136764966E1
1.229507542E1,1.153845566E1,-8.634045410E-1,1.903741150E0,1.172628060E1
1.230508642E1,1.185280197E1,-8.901988220E-1,2.015858002E0,1.205591357E1
1.231509742E1,1.204590042E1,-9.204359436E-1,2.310445404E0,1.229996249E1
1.232510842E1,1.209874054E1,-8.714877319E-1,2.658172302E0,1.241792630E1
1.233512042E1,1.207104813E1,-8.196954346E-1,2.890040131E0,1.243922970E1
1.234513142E1,1.190668991E1,-8.530760193E-1,3.030298462E0,1.231583177E1
1.235514242E1,1.166748734E1,-9.629475403E-1,3.053200836E0,1.209874225E1
1.236515342E1,1.132275421E1,-1.157991943E0,2.968776398E0,1.176262477E1
1.237516442E1,1.097951797E1,-1.415157166E0,2.754571838E0,1.140789861E1
1.238517542E1,1.064196991E1,-1.533710632E0,2.539768524E0,1.104781499E1
1.239518642E1,1.037267990E1,-1.623823242E0,2.405946808E0,1.077115919E1
1.240519842E1,1.024783951E1,-1.705553284E0,2.239043884E0,1.062734417E1
1.241520942E1,1.017763550E1,-1.732497253E0,2.081571350E0,1.053179711E1
1.242522042E1,1.012240036E1,-1.758692780E0,1.836979980E0,1.043697680E1
1.243523142E1,1.003423370E1,-1.773362274E0,1.507365417E0,1.030062184E1
1.244524242E1,9.899962921E0,-1.821412354E0,1.165925446E0,1.013341951E1
1.245525342E1,9.901759186E0,-1.985471191E0,7.936495972E-1,1.012999558E1
1.246526542E1,9.748028870E0,-2.129022675E0,5.454656982E-1,9.992714207E0
1.247527642E1,9.577982483E0,-2.229314117E0,3.703298950E-1,9.840972214E0
1.248528742E1,9.532177734E0,-2.222727814E0,2.665956116E-1,9.791527180E0
1.249529842E1,9.489366760E0,-2.047442322E0,2.384541321E-1,9.710662281E0
1.250530942E1,9.336085510E0,-1.773811340E0,2.085163879E-1,9.505386810E0
1.251532042E1,9.179960175E0,-1.489402771E0,1.387614441E-1,9.301034575E0
1.252533242E1,8.990154877E0,-1.261726227E0,9.430389404E-2,9.078751621E0
1.253534342E1,8.811875610E0,-1.145418091E0,1.676513672E-1,8.887589176E0
1.254535442E1,8.449479218E0,-1.062789917E0,2.884501648E-1,8.520940380E0
1.255536542E1,8.232280884E0,-1.113983459E0,3.788621521E-1,8.315945179E0
1.256537642E1,8.244255981E0,-1.275347900E0,4.671784973E-1,8.355388962E0
1.257538742E1,8.430618439E0,-1.548080750E0,5.737568665E-1,8.590755392E0
1.258539842E1,8.709189148E0,-1.867217102E0,6.111790466E-1,8.928046547E0
1.259541042E1,8.852740631E0,-2.146386566E0,6.331832886E-1,9.131205454E0
1.260542142E1,8.922794952E0,-2.172133026E0,6.715036011E-1,9.207895999E0
1.261543242E1,8.822054443E0,-2.033371582E0,6.905140686E-1,9.079650559E0
1.262544342E1,8.706494751E0,-1.988914032E0,6.408174133E-1,8.953740941E0
1.263545442E1,8.656049652E0,-1.999841309E0,3.423381042E-1,8.890655556E0
1.264546542E1,9.095535736E0,-2.036365356E0,-1.781295776E-2,9.320722692E0
1.265547642E1,9.771679688E0,-2.365830231E0,-5.902226257E-1,1.007130773E1
1.266548842E1,1.016057098E1,-2.925965424E0,-9.157955933E-1,1.061306544E1
1.267549942E1,1.000624191E1,-3.252586212E0,-8.547225952E-1,1.055626567E1
1.268551042E1,9.601932678E0,-3.008294220E0,-2.417472839E-1,1.006505773E1
1.269552142E1,9.275461578E0,-2.109862518E0,6.435118103E-1,9.534139436E0
1.270553242E1,9.638307037E0,-1.203946381E0,1.094972992E0,9.774733515E0
1.271554342E1,1.005863297E1,-5.610333252E-1,1.132245483E0,1.013769379E1
1.272555542E1,1.043330383E1,-3.308120728E-1,7.911048889E-1,1.046848186E1
1.273556642E1,1.074989548E1,-6.108796692E-1,1.812730408E-1,1.076876440E1
1.274557742E1,1.083881058E1,-1.264869690E0,-4.718188477E-1,1.092256028E1
1.275558842E1,1.094209579E1,-1.966161346E0,-8.562194824E-1,1.115026289E1
1.276559942E1,1.103071152E1,-2.423460388E0,-8.408015442E-1,1.132504764E1
1.277561042E1,1.105915237E1,-2.593207397E0,-5.327421570E-1,1.137160455E1
1.278562142E1,1.092024124E1,-2.567610626E0,-1.576222229E-1,1.121914158E1
1.279563342E1,1.057191559E1,-2.530188446E0,8.232879639E-2,1.087078796E1
1.280564442E1,9.904154205E0,-2.488724670E0,1.667532349E-1,1.021341410E1
1.281565542E1,9.084309082E0,-2.432890778E0,2.149530029E-1,9.406903520E0
1.282566642E1,8.167016602E0,-2.375709686E0,2.255809021E-1,8.508527689E0
1.283567742E1,7.148833923E0,-2.268233185E0,3.517684937E-1,7.508292037E0
1.284568842E1,6.228248291E0,-2.056423645E0,2.411485291E-1,6.563391471E0
1.285570042E1,5.714516602E0,-1.772314453E0,-1.152603149E-2,5.983053682E0
1.286571142E1,5.620512085E0,-1.358125763E0,-2.621049500E-1,5.788208764E0
1.287572242E1,5.727838898E0,-9.442364502E-1,-4.788542175E-1,5.824862425E0
1.288573342E1,5.766308899E0,-6.298901367E-1,-7.373666382E-1,5.847289069E0
1.289574442E1,5.766757965E0,-4.787045288E-1,-9.762698364E-1,5.868369301E0
1.290575542E1,5.692362671E0,-4.888833618E-1,-1.246457977E0,5.847705294E0
1.291576642E1,5.543871460E0,-6.030958557E-1,-1.409169617E0,5.751868773E0
1.292577842E1,5.336851959E0,-8.170010376E-1,-1.326242065E0,5.559532134E0
1.293578942E1,5.135221252E0,-1.074166260E0,-1.144070892E0,5.369658152E0
1.294580042E1,4.997208252E0,-1.364562378E0,-9.630972290E-1,5.268935098E0
1.295581142E1,4.920867004E0,-1.631157990E0,-8.521778870E-1,5.253743010E0
1.296582242E1,5.047803040E0,-1.777254181E0,-6.382727051E-1,5.389465650E0
1.297583342E1,5.326373749E0,-1.776206360E0,-3.857478333E-1,5.627963018E0
1.298584542E1,5.796695709E0,-1.565893707E0,-1.531315613E-1,6.006426019E0
1.299585642E1,6.125262451E0,-1.218915253E0,1.541793823E-2,6.245384872E0
1.300586742E1,6.332731018E0,-1.019829254E0,-6.885681152E-3,6.414326252E0
1.301587842E1,6.605763245E0,-9.951306152E-1,-1.772314453E-1,6.682649472E0
1.302588942E1,7.003186798E0,-1.005608826E0,-4.719685364E-1,7.090742467E0
1.303590042E1,7.331154785E0,-1.069825287E0,-9.122030640E-1,7.464748560E0
1.304591179E1,7.699239349E0,-1.075663147E0,-1.562750244E0,7.929535049E0
1.305592379E1,8.293952637E0,-1.053359528E0,-1.986668701E0,8.593373561E0
1.306593479E1,8.982969818E0,-1.072669373E0,-2.087708588E0,9.284551334E0
1.307594579E1,9.596244507E0,-1.002165985E0,-1.929637299E0,9.839499245E0
1.308595679E1,1.037896683E1,-9.728269958E-1,-1.572629700E0,1.054241476E1
1.309596779E1,1.102128113E1,-1.032103729E0,-1.313368835E0,1.114714374E1
1.310597879E1,1.126108246E1,-1.231638794E0,-8.830137634E-1,1.136259766E1
1.311598979E1,1.144295425E1,-1.796863403E0,-3.676354980E-1,1.158900669E1
1.312600179E1,1.180340469E1,-2.338736572E0,7.813751221E-2,1.203312746E1
1.313601279E1,1.269914200E1,-2.680026855E0,2.200424194E-1,1.298072302E1
1.314602379E1,1.364053436E1,-2.731070709E0,3.150947571E-1,1.391481978E1
1.315603479E1,1.434646637E1,-2.665057983E0,3.975732422E-1,1.459731810E1
1.316604579E1,1.514849854E1,-2.512225800E0,5.869294739E-1,1.536661227E1
1.317605679E1,1.611069763E1,-2.413431244E0,1.069675598E0,1.632554546E1
1.318606879E1,1.728994537E1,-2.700085144E0,1.662442932E0,1.757829307E1
1.319607979E1,1.814436859E1,-3.067421265E0,2.307601318E0,1.854594858E1
1.320609079E1,1.858789627E1,-3.051254883E0,3.021915894E0,1.907752656E1
1.321610179E1,1.886601791E1,-2.318678284E0,3.801345062E0,1.938435259E1
1.322611279E1,1.881392624E1,-9.912387085E-1,4.382885742E0,1.934311408E1
1.323612379E1,1.840542572E1,3.167413330E-1,4.512965240E0,1.895328141E1
1.324613479E1,1.769620056E1,1.109941864E0,4.276606750E0,1.823943120E1
1.325614679E1,1.641232040E1,1.088686066E0,3.752696228E0,1.687104701E1
1.326615779E1,1.465063385E1,4.704716492E-1,3.227588196E0,1.500932181E1
1.327616879E1,1.286619461E1,-4.848417664E-1,2.751727753E0,1.316609437E1
1.328617979E1,1.156195679E1,-1.264270935E0,2.147135010E0,1.182740100E1
1.329619079E1,1.073612411E1,-1.558259583E0,1.832040253E0,1.100222275E1
1.330620179E1,1.037103333E1,-1.387315063E0,1.620530090E0,1.058815815E1
1.331621379E1,1.058613602E1,-1.320703583E0,1.106199646E0,1.072540029E1
1.332622479E1,1.019634659E1,-1.112187195E0,1.133892059E0,1.031930983E1
1.333623579E1,1.023721161E1,-7.068301392E-1,1.151705017E0,1.032601253E1
1.334624679E1,1.062355820E1,-4.409829712E-1,1.238075409E0,1.070454508E1
1.335625779E1,1.102143082E1,-3.038681030E-2,1.517843628E0,1.112549819E1
1.336626879E1,1.133368149E1,3.445834351E-1,1.757644958E0,1.147433613E1
1.337627979E1,1.125883713E1,6.661148071E-1,1.831441498E0,1.142625487E1
1.338629179E1,1.116588043E1,9.279203796E-1,1.803898773E0,1.134865511E1
1.339630279E1,1.101514389E1,1.107397156E0,1.448238373E0,1.116499520E1
1.340631379E1,1.065948349E1,1.245410156E0,9.794132996E-1,1.077658968E1
1.341632479E1,1.026101212E1,1.269060974E0,6.378236389E-1,1.035884667E1
1.342633579E1,9.894723816E0,1.311123505E0,5.069956970E-1,9.994080692E0
1.343634679E1,9.444460144E0,1.257534943E0,5.801934814E-1,9.545462064E0
1.344635779E1,9.009614410E0,1.068927155E0,7.330256653E-1,9.102366929E0
1.345636979E1,8.721463623E0,8.472381592E-1,1.004710693E0,8.819931054E0
1.346638079E1,8.512348480E0,7.225474548E-1,1.339264984E0,8.647299126E0
1.347639179E1,8.378975830E0,5.906716919E-1,1.795216827E0,8.589466367E0
1.348640279E1,8.263865204E0,3.701802063E-1,2.137255554E0,8.543790891E0
1.349641379E1,8.196355591E0,1.916015625E-1,2.418969727E0,8.548003900E0
1.350642479E1,8.321495361E0,1.651066589E-1,2.559826813E0,8.707884850E0
1.351643579E1,8.407266998E0,2.095642090E-3,2.584824829E0,8.795650185E0
1.352644779E1,8.387208710E0,-2.145039368E-1,2.348316650E0,8.712397659E0
1.353645879E1,8.152796173E0,-4.810995483E-1,1.858684845E0,8.375813487E0
1.354646979E1,7.938441925E0,-7.752378845E-1,1.306183777E0,8.082448270E0
1.355648079E1,7.961493988E0,-9.401948547E-1,8.412506104E-1,8.060834664E0
1.356649179E1,8.193511505E0,-9.376501465E-1,4.427792358E-1,8.258866268E0
1.357650279E1,8.629704437E0,-1.013093262E0,-1.124162292E-1,8.689694703E0
1.358651479E1,9.309590607E0,-9.836045837E-1,-6.001020813E-1,9.380622461E0
1.359652579E1,1.003333557E1,-1.426832886E0,-1.185384979E0,1.020337260E1
1.360653679E1,1.061382843E1,-1.594484253E0,-1.098266144E0,1.078897226E1
1.361654779E1,1.083836151E1,-1.587598572E0,-3.694317627E-1,1.096024768E1
1.362655879E1,1.133128647E1,-1.771116943E0,6.167175293E-1,1.148543638E1
1.363656979E1,1.190953400E1,-2.145937500E0,1.563798065E0,1.220194706E1
1.364658079E1,1.251427643E1,-2.561922455E0,2.358794861E0,1.298978346E1
1.365659279E1,1.318907318E1,-2.896925812E0,2.963387604E0,1.382481452E1
1.366660379E1,1.390308838E1,-3.040926361E0,3.248394928E0,1.459777960E1
1.367661479E1,1.439286987E1,-2.968177643E0,3.174748077E0,1.503475331E1
1.368662579E1,1.456171875E1,-2.957849121E0,2.823129272E0,1.512489945E1
1.369663679E1,1.412657364E1,-2.902913361E0,2.449655914E0,1.462832194E1
1.370664779E1,1.348141525E1,-2.716999969E0,2.158810730E0,1.392088754E1
1.371665879E1,1.291454407E1,-2.422562256E0,2.020797729E0,1.329427997E1
1.372667079E1,1.255843460E1,-2.294578400E0,1.817670135E0,1.289508799E1
1.373668179E1,1.237581436E1,-2.457439728E0,1.344354401E0,1.268885652E1
1.374669279E1,1.227911545E1,-2.501597900E0,8.402027893E-1,1.255948283E1
1.375670379E1,1.243299545E1,-2.387834473E0,4.478686523E-1,1.266813782E1
1.376671479E1,1.268342468E1,-2.258802795E0,-6.511459351E-2,1.288315535E1
1.377672579E1,1.262848892E1,-1.990111542E0,-2.871029663E-1,1.278756054E1
1.378673679E1,1.270617737E1,-1.704804840E0,-3.796105957E-1,1.282565425E1
1.379674879E1,1.259301270E1,-1.268312531E0,-1.631607056E-2,1.265673148E1
1.380675979E1,1.247356110E1,-8.422984314E-1,3.367996216E-1,1.250650339E1
1.381677079E1,1.215667007E1,-6.611750793E-1,7.842192078E-1,1.219986801E1
1.382678179E1,1.188229065E1,-8.541238403E-1,1.342558136E0,1.198836190E1
1.383679279E1,1.160386963E1,-1.228645020E0,1.746867371E0,1.179876708E1
1.384680379E1,1.132529892E1,-1.496587830E0,1.783690796E0,1.156216777E1
1.385681579E1,1.139415573E1,-1.645528107E0,1.686692505E0,1.163526876E1
1.386682679E1,1.173484726E1,-1.489552460E0,1.575473785E0,1.193346238E1
1.387683779E1,1.197240326E1,-1.157243500E0,1.397643585E0,1.210913126E1
1.388684879E1,1.239257950E1,-9.048683167E-1,8.511300659E-1,1.245468730E1
1.389685979E1,1.208856171E1,-7.788304138E-1,4.837939453E-1,1.212328163E1
1.390687079E1,1.175325897E1,-6.779402161E-1,1.338217163E-1,1.177355544E1
1.391688179E1,1.134700378E1,-5.252577209E-1,1.249900818E-1,1.135984212E1
1.392689379E1,1.106513992E1,-3.924838257E-1,-4.595443726E-2,1.107219386E1
1.393690479E1,1.016850449E1,-4.734654236E-1,5.298980713E-2,1.017965917E1
1.394691579E1,9.275012512E0,-4.712200928E-1,1.856140137E-1,9.288829745E0
1.395692679E1,8.361911316E0,-5.969586182E-1,2.240840149E-1,8.386187101E0
1.396693779E1,7.411837006E0,-7.975415039E-1,2.186952209E-1,7.457829969E0
1.397694879E1,6.469247131E0,-1.073567505E0,-8.442443848E-2,6.558264490E0
1.398695979E1,5.595663757E0,-1.327738953E0,-4.502636719E-1,5.768629039E0
1.399697179E1,4.839885406E0,-1.508113861E0,-7.626640320E-1,5.126456339E0
1.400698279E1,4.411625977E0,-1.596729584E0,-8.363108826E-1,4.765648436E0
1.401699379E1,4.142335968E0,-1.624421997E0,-6.105802917E-1,4.491158246E0
1.402700479E1,3.768263855E0,-1.711989899E0,-4.564009094E-1,4.164015332E0
1.403701579E1,3.385659485E0,-1.918710022E0,-4.733157349E-1,3.920225259E0
1.404702654E1,3.054548035E0,-2.137854309E0,-5.150788879E-1,3.763773506E0
1.405703754E1,2.848576355E0,-2.337988129E0,-5.813909912E-1,3.730762821E0
1.406704954E1,2.730921021E0,-2.474504242E0,-5.876779175E-1,3.731818082E0
1.407706054E1,2.686463470E0,-2.381697235E0,-5.086422729E-1,3.626056351E0
1.408707154E1,2.848276978E0,-2.111658783E0,-3.204835510E-1,3.560125597E0
1.409708254E1,3.186124420E0,-1.704206085E0,-1.922003174E-1,3.618376454E0
1.410709354E1,3.563190308E0,-1.206191711E0,-1.359173584E-1,3.764265817E0
1.411710454E1,3.975582733E0,-7.497908020E-1,-7.304809570E-2,4.046329243E0
1.412711654E1,4.521048431E0,-4.093986511E-1,-1.678010559E-1,4.542647176E0
1.413712754E1,4.826114044E0,-7.349716187E-2,-1.101708984E-1,4.827930843E0
1.414713854E1,4.994513855E0,6.541397095E-2,-2.963836670E-2,4.995030137E0
1.415714954E1,5.189408569E0,1.320254517E-1,-8.292755127E-2,5.191750090E0
1.416716054E1,5.875132599E0,3.739224243E-1,-4.360432434E-1,5.903146173E0
1.417717154E1,6.269263000E0,3.858975220E-1,-6.767427063E-1,6.317480206E0
1.418718254E1,6.630012817E0,2.387535095E-1,-9.282197571E-1,6.698930147E0
1.419719454E1,7.282206573E0,2.586621094E-1,-1.157542877E0,7.378166722E0
1.420720554E1,8.131390686E0,4.432283020E-1,-1.369801483E0,8.257864247E0
1.421721654E1,8.892557831E0,7.321275330E-1,-1.532662811E0,9.053322638E0
1.422722754E1,9.526938629E0,1.013542328E0,-1.554367676E0,9.705971696E0
1.423723854E1,1.044423111E1,1.382525024E0,-1.901795197E0,1.070561366E1
1.424724954E1,1.060454773E1,1.627864838E0,-1.814676361E0,1.088115007E1
1.425726054E1,1.073028625E1,1.855840759E0,-1.569037170E0,1.100204825E1
1.426727154E1,1.111738129E1,1.905238037E0,-1.280137939E0,1.135186556E1
1.427728354E1,1.168245621E1,1.506317596E0,-9.234297180E-1,1.181530779E1
1.428729454E1,1.240545273E1,6.054908752E-1,-6.647676086E-1,1.243799793E1
1.429730554E1,1.297382080E1,-5.929170227E-1,-3.724255371E-1,1.299270093E1
1.430731654E1,1.293400360E1,-1.478625183E0,1.660047913E-1,1.301930640E1
1.431732754E1,1.267174896E1,-1.856888580E0,7.433541870E-1,1.282863330E1
1.432733854E1,1.261666351E1,-1.586101685E0,1.121767273E0,1.276535462E1
1.433735054E1,1.290616150E1,-6.694079590E-1,1.288670197E0,1.298760111E1
1.434736154E1,1.342393478E1,2.255809021E-1,1.168021088E0,1.347654203E1
1.435737254E1,1.401116364E1,5.897735596E-1,8.217910767E-1,1.404762898E1
1.436738354E1,1.414992508E1,4.311035156E-1,2.893482971E-1,1.415944746E1
1.437739454E1,1.360939911E1,-2.171983337E-1,-2.421963501E-1,1.361328683E1
1.438740554E1,1.299986664E1,-9.828561401E-1,-3.611988831E-1,1.304197084E1
1.439741654E1,1.261127472E1,-1.572480011E0,-7.035369873E-3,1.270893359E1
1.440742854E1,1.253987320E1,-2.043251038E0,4.397854614E-1,1.271285593E1
1.441743954E1,1.282024017E1,-2.141446838E0,9.003776550E-1,1.302900735E1
1.442745054E1,1.305659866E1,-1.850751343E0,1.323098602E0,1.325332559E1
1.443746154E1,1.325942688E1,-1.450932770E0,1.695673828E0,1.344592566E1
1.444747254E1,1.321526871E1,-1.046324158E0,1.940863953E0,1.339795037E1
1.445748354E1,1.288385788E1,-7.306306458E-1,1.927990723E0,1.304778768E1
1.446749454E1,1.221370148E1,-5.078938293E-1,1.843266907E0,1.236244688E1
1.447750654E1,1.139999359E1,-4.486170959E-1,1.679806824E0,1.153181955E1
1.448751754E1,1.075154205E1,-4.025129700E-1,1.501826935E0,1.086338609E1
1.449752854E1,1.020667511E1,-3.436853027E-1,1.326541443E0,1.029825464E1
1.450753954E1,9.693392487E0,-2.655477905E-1,1.360969849E0,9.792068855E0
1.451755054E1,9.216184845E0,-2.709365845E-1,1.295256500E0,9.310701323E0
1.452756154E1,8.932973785E0,-3.109034729E-1,1.229842529E0,9.022593544E0
1.453757254E1,8.575966187E0,-2.809657288E-1,1.177900543E0,8.661038475E0
1.454758454E1,8.358019409E0,-2.080673218E-1,1.099912720E0,8.432650144E0
1.455759554E1,8.257578278E0,-1.631607056E-2,9.574090576E-1,8.312911483E0
1.456760654E1,8.202792206E0,1.999841309E-1,6.899153137E-1,8.234183430E0
1.457761754E1,8.073461151E0,2.980302429E-1,4.011657715E-1,8.088914078E0
1.458762854E1,7.872578888E0,3.095562744E-1,2.306703186E-1,7.882038583E0
1.459763954E1,7.761060791E0,2.453398132E-1,1.407073975E-1,7.766212384E0
1.460765154E1,7.713759155E0,2.406994629E-1,1.820214844E-1,7.719659860E0
1.461766254E1,7.708669739E0,2.899470520E-1,3.625460815E-1,7.722635437E0
1.462767354E1,7.852670288E0,2.995271301E-1,4.887336731E-1,7.873563854E0
1.463768454E1,8.007448425E0,2.398013306E-1,5.554948425E-1,8.030274558E0
1.464769554E1,8.150550842E0,1.080752563E-1,4.822970581E-1,8.165523238E0
1.465770654E1,8.335117035E0,-1.567240906E-1,3.402424622E-1,8.343530629E0
1.466771754E1,8.473728790E0,-4.737648010E-1,2.480342102E-1,8.490586179E0
1.467772954E1,8.792116699E0,-8.024812317E-1,1.532812500E-1,8.829993620E0
1.468774054E1,9.261839905E0,-1.012344818E0,1.282832336E-1,9.317884794E0
1.469775154E1,9.848020935E0,-1.204545135E0,1.686991882E-1,9.922847612E0
1.470776254E1,1.044093796E1,-1.394799500E0,1.830693054E-1,1.053528194E1
1.471777354E1,1.091575058E1,-1.603166199E0,8.711883545E-2,1.103319275E1
1.472778454E1,1.139804764E1,-1.853445740E0,-1.422042847E-2,1.154776832E1
1.473779554E1,1.183379150E1,-2.163002014E0,-4.340972900E-3,1.202984696E1
1.474780754E1,1.219783447E1,-2.512525177E0,2.139051819E-1,1.245574984E1
1.475781854E1,1.269614822E1,-2.776725769E0,6.369255066E-1,1.301184306E1
1.476782954E1,1.328083237E1,-2.872376862E0,1.120270386E0,1.363400392E1
1.477784054E1,1.362062576E1,-2.752027130E0,1.614991608E0,1.398939947E1
1.478785154E1,1.383872223E1,-2.466870117E0,1.847308502E0,1.417773712E1
1.479786254E1,1.387000717E1,-2.099533997E0,1.993704071E0,1.416898013E1
1.480787354E1,1.350102448E1,-1.949994965E0,1.819017334E0,1.376186638E1
1.481788554E1,1.303025345E1,-2.227517853E0,1.199605408E0,1.327359762E1
1.482789654E1,1.310135559E1,-2.944975891E0,5.614823914E-1,1.344000237E1
1.483790754E1,1.306767563E1,-3.538491669E0,1.800755310E-1,1.353947919E1
1.484791854E1,1.291693909E1,-3.723506927E0,7.589218140E-2,1.344312385E1
1.485792954E1,1.246068787E1,-3.278781738E0,3.445834351E-1,1.288944877E1
1.486794054E1,1.178005325E1,-2.299667816E0,8.891510010E-1,1.203531122E1
1.487795154E1,1.114806747E1,-1.241518250E0,1.524878998E0,1.132016042E1
1.488796354E1,1.062954575E1,-5.194198608E-1,2.017205200E0,1.083171993E1
1.489797454E1,1.012584320E1,-3.746708679E-1,2.265389099E0,1.038292187E1
1.490798554E1,9.774074707E0,-8.150550842E-1,1.961820374E0,1.000227926E1
1.491799654E1,9.772577820E0,-1.557511139E0,1.183439026E0,9.966425945E0
1.492800754E1,1.008318192E1,-2.421813812E0,3.164419556E-1,1.037477109E1
1.493801854E1,1.025981461E1,-2.987337799E0,-6.059399414E-1,1.070304378E1
1.494802954E1,1.039423508E1,-3.312611389E0,-1.364263000E0,1.099430446E1
1.495804154E1,1.023721161E1,-3.435655518E0,-1.795216827E0,1.094655351E1
1.496805254E1,9.861941986E0,-3.532953186E0,-1.736389160E0,1.061860185E1
1.497806354E1,9.468110962E0,-3.738775177E0,-1.164129181E0,1.024591439E1
1.498807454E1,8.977131958E0,-3.866309967E0,-3.556604004E-1,9.780784492E0
1.499808554E1,8.480913849E0,-3.974235535E0,4.213737488E-1,9.375393519E0
1.500809654E1,8.071215820E0,-4.001478882E0,1.110241241E0,9.076838308E0
1.501810754E1,7.602390747E0,-3.764521637E0,1.750759277E0,8.662166373E0
1.502811954E1,7.184609528E0,-3.398981781E0,2.252665558E0,8.261125427E0
1.503813054E1,6.849306793E0,-2.898422699E0,2.511776733E0,7.850024207E0
1.504814167E1,6.782096558E0,-2.351609802E0,2.597548370E0,7.633751366E0
1.505815267E1,6.842720490E0,-1.794019318E0,2.349364471E0,7.453914571E0
1.506816367E1,6.844816132E0,-1.407672729E0,1.667682037E0,7.184303290E0
1.507817467E1,6.691983948E0,-1.283880157E0,9.671388245E-1,6.882321914E0
1.508818567E1,6.431974640E0,-1.208586731E0,4.779560852E-1,6.561967820E0
1.509819767E1,6.284830627E0,-1.201701050E0,3.038681030E-2,6.398758066E0
1.510820867E1,6.235882416E0,-1.170266418E0,-2.823129272E-1,6.351019885E0
1.511821967E1,6.301895142E0,-1.043929138E0,-3.597019958E-1,6.397894650E0
1.512823067E1,6.576873322E0,-9.201365662E-1,-1.678010559E-1,6.643046830E0
1.513824167E1,6.937772827E0,-6.897656250E-1,2.649490356E-1,6.977009847E0
1.514825267E1,7.319778442E0,-3.689826965E-1,6.228547668E-1,7.355491332E0
1.515826367E1,7.750432892E0,-1.077758789E-1,7.942483521E-1,7.791768483E0
1.516827567E1,8.172704773E0,3.038681030E-2,8.439450073E-1,8.216219924E0
1.517828667E1,8.549920349E0,1.636097717E-1,8.210426331E-1,8.590810040E0
1.518829767E1,8.746761017E0,2.258802795E-1,7.268884277E-1,8.779818732E0
1.519830867E1,8.810977478E0,2.519261169E-1,5.897735596E-1,8.834286827E0
1.520831967E1,9.056916046E0,3.719764709E-1,4.519102478E-1,9.075809475E0
1.521833067E1,9.560917969E0,4.894821167E-1,2.363584900E-1,9.576356848E0
1.522834167E1,1.007794281E1,6.441105652E-1,2.020797729E-2,1.009852554E1
1.523835367E1,1.053898407E1,7.665559387E-1,-3.519181824E-1,1.057268365E1
1.524836467E1,1.105885300E1,8.096662903E-1,-6.685098267E-1,1.110858652E1
1.525837567E1,1.127365631E1,7.484436035E-1,-7.994874573E-1,1.132672391E1
1.526838667E1,1.136436768E1,5.203179932E-1,-7.334747314E-1,1.139989336E1
1.527839767E1,1.139310791E1,1.200503540E-1,-4.327500916E-1,1.140195565E1
1.528840867E1,1.141002274E1,-1.695973206E-1,4.580474854E-2,1.141137503E1
1.529841967E1,1.169233566E1,-2.513273621E-1,4.867877197E-1,1.170516301E1
1.530843167E1,1.208182571E1,-1.342707825E-1,8.189469910E-1,1.211029378E1
1.531844267E1,1.249436783E1,2.409988403E-2,1.037342834E0,1.253737965E1
1.532845367E1,1.302067337E1,4.550537109E-2,1.065484314E0,1.306427428E1
1.533846467E1,1.349907852E1,9.774673462E-2,9.684860229E-1,1.353412873E1
1.534847567E1,1.402628220E1,2.409988403E-2,7.815248108E-1,1.404805873E1
1.535848667E1,1.473730362E1,-4.355941772E-1,4.225712585E-1,1.474979412E1
1.536849767E1,1.513188309E1,-1.169817352E0,1.624122620E-1,1.517790289E1
1.537850967E1,1.503608231E1,-1.616937561E0,2.415975952E-1,1.512470256E1
1.538852067E1,1.486364090E1,-1.496587830E0,6.346801758E-1,1.495227123E1
1.539853167E1,1.505164993E1,-8.554710388E-1,1.117126923E0,1.511727386E1
1.540854267E1,1.526046570E1,7.544311523E-2,1.544338531E0,1.533859467E1
1.541855367E1,1.544293625E1,7.569758606E-1,1.847158813E0,1.557142537E1
1.542856467E1,1.565369797E1,7.777825928E-1,1.928290100E0,1.579118452E1
1.543857567E1,1.544353500E1,2.520758057E-1,1.914967804E0,1.556384969E1
1.544858767E1,1.477023514E1,-5.752537537E-1,1.666484528E0,1.487507760E1
1.545859867E1,1.388273071E1,-1.173409882E0,1.564546509E0,1.401980416E1
1.546860967E1,1.309806244E1,-1.325643311E0,1.714384918E0,1.327613217E1
1.547862067E1,1.259076736E1,-1.209634552E0,1.939965820E0,1.279664432E1
1.548863167E1,1.227327759E1,-1.018032990E0,1.996697845E0,1.247623886E1
1.549864267E1,1.201057388E1,-9.687854004E-1,1.786834259E0,1.218134668E1
1.550865367E1,1.174218201E1,-1.006656647E0,1.389111328E0,1.186683724E1
1.551866567E1,1.134221375E1,-1.040486298E0,1.012344818E0,1.143473946E1
1.552867667E1,1.077130096E1,-1.027014313E0,7.497908020E-1,1.084609926E1
1.553868767E1,1.031130753E1,-9.306147766E-1,5.975573730E-1,1.037044751E1
1.554869867E1,9.848170624E0,-7.463479614E-1,5.682183838E-1,9.892743403E0
1.555870967E1,9.418414307E0,-5.769003296E-1,5.363346863E-1,9.451296045E0
1.556872067E1,9.038803711E0,-4.752616882E-1,3.941304016E-1,9.059866719E0
1.557873167E1,8.762178955E0,-4.659809875E-1,2.157014465E-1,8.777211712E0
1.558874367E1,8.407566376E0,-5.231620789E-1,4.655319214E-2,8.423956204E0
1.559875467E1,8.121062164E0,-5.396278381E-1,-1.924996948E-1,8.141247141E0
1.560876567E1,7.799231415E0,-5.755531311E-1,-4.854405212E-1,7.835491342E0
1.561877667E1,7.346722412E0,-6.634204102E-1,-8.442443848E-1,7.424769722E0
1.562878767E1,6.903643799E0,-6.888674927E-1,-1.099613342E0,7.024527431E0
1.563879867E1,6.505621490E0,-6.737489319E-1,-1.189725952E0,6.647743711E0
1.564880967E1,6.181096344E0,-6.715036011E-1,-1.098715210E0,6.313797923E0
1.565882167E1,5.908812561E0,-5.954617310E-1,-8.220904541E-1,5.995370987E0
1.566883267E1,5.717809753E0,-5.581892395E-1,-4.059558105E-1,5.759316255E0
1.567884367E1,5.697601776E0,-5.510041809E-1,-5.149291992E-2,5.724414654E0
1.568885467E1,5.749394073E0,-5.339396667E-1,2.083666992E-1,5.777892389E0
1.569886567E1,5.726491699E0,-5.912704468E-1,3.689826965E-1,5.768748231E0
1.570887667E1,5.546715546E0,-6.707551575E-1,3.989204407E-1,5.601348351E0
1.571888767E1,5.366041260E0,-8.384065247E-1,2.475851440E-1,5.436784225E0
1.572889967E1,5.026547241E0,-1.045875092E0,8.981323242E-4,5.134202244E0
1.573891067E1,4.755011902E0,-1.221609650E0,-2.237846375E-1,4.914524177E0
1.574892167E1,4.664450226E0,-1.256487122E0,-4.608915710E-1,4.852656678E0
1.575893267E1,4.705614624E0,-1.184037781E0,-6.851252747E-1,4.900423563E0
1.576894367E1,4.843477936E0,-1.160836029E0,-9.150471497E-1,5.064003366E0
1.577895467E1,5.098996582E0,-1.282682648E0,-1.019230499E0,5.355732604E0
1.578896567E1,5.434149628E0,-1.363514557E0,-8.068222046E-1,5.660398943E0
1.579897667E1,5.716462555E0,-1.542841644E0,-5.748046875E-1,5.948840636E0
1.580898867E1,6.057902527E0,-1.805395660E0,-3.248245239E-1,6.329545599E0
1.581899967E1,6.443201294E0,-1.977537689E0,-8.098159790E-2,6.740330574E0
1.582901067E1,6.711742859E0,-2.126627655E0,1.718426514E-1,7.042696024E0
1.583902167E1,6.891219635E0,-2.129771118E0,4.360432434E-1,7.225992443E0
1.584903267E1,7.125632172E0,-1.899400177E0,6.400689697E-1,7.402164762E0
1.585904367E1,7.400460663E0,-1.640887756E0,6.337820435E-1,7.606642514E0
1.586905467E1,7.774083710E0,-1.474433899E0,2.953358459E-1,7.918178838E0
1.587906667E1,8.519683228E0,-1.549278259E0,-3.204835510E-1,8.665331796E0
1.588907767E1,9.596843262E0,-1.974543915E0,-1.163380737E0,9.866695445E0
1.589908867E1,1.025592270E1,-2.571352844E0,-1.692230988E0,1.070791537E1
1.590909967E1,1.047776138E1,-3.035238190E0,-1.570534058E0,1.102101319E1
1.591911067E1,1.075708054E1,-3.135978699E0,-7.800279236E-1,1.123198948E1
1.592912167E1,1.137080429E1,-2.998414764E0,2.821632385E-1,1.176287794E1
1.593913267E1,1.207793381E1,-2.584076385E0,1.204395447E0,1.240985512E1
1.594914467E1,1.265139130E1,-2.102677460E0,1.868863678E0,1.296038602E1
1.595915567E1,1.334370163E1,-1.844464417E0,2.133663025E0,1.363850945E1
1.596916667E1,1.400218231E1,-1.838925934E0,1.938169556E0,1.425479776E1
1.597917767E1,1.458327393E1,-1.898202667E0,1.312470703E0,1.476474284E1
1.598918867E1,1.483265533E1,-1.891167297E0,6.456074524E-1,1.496666252E1
1.599919967E1,1.489372833E1,-1.846859436E0,1.501377869E-1,1.500855006E1
1.600921067E1,1.507095978E1,-1.731299744E0,-3.607498169E-2,1.517011961E1
1.601922267E1,1.522873169E1,-1.531614990E0,7.394622803E-2,1.530573688E1
1.602923367E1,1.508039017E1,-1.330732727E0,1.234931946E-1,1.513949364E1
1.603924467E1,1.466605179E1,-1.183289337E0,6.256988525E-2,1.471384259E1
1.604925592E1,1.394649811E1,-1.065334625E0,2.739303589E-2,1.398715474E1
1.605926692E1,1.309087738E1,-9.520202637E-1,1.691482544E-2,1.312545996E1
1.606927792E1,1.221953934E1,-7.876620483E-1,5.523513794E-2,1.224502364E1
1.607928892E1,1.119536911E1,-4.516108704E-1,1.121168518E-1,1.120503512E1
1.608930092E1,1.027927414E1,-1.951940918E-1,3.128494263E-2,1.028117485E1
1.609931192E1,9.494306488E0,6.406677246E-2,-6.616241455E-2,9.494753167E0
1.610932292E1,8.724158020E0,1.374142456E-1,-2.177970886E-1,8.727958032E0
1.611933392E1,8.025710449E0,3.487747192E-2,-3.013233948E-1,8.031440745E0
1.612934492E1,7.488178253E0,-1.231938171E-1,-2.242337036E-1,7.492547699E0
1.613935592E1,7.037016449E0,-2.920426941E-1,5.179229736E-2,7.043264292E0
1.614936692E1,6.689888306E0,-5.050497437E-1,3.365002441E-1,6.717359094E0
1.615937792E1,6.405330048E0,-6.077362061E-1,6.837780762E-1,6.470328336E0
1.616938992E1,6.255791016E0,-6.221063232E-1,9.680369568E-1,6.360741549E0
1.617940092E1,6.266568604E0,-5.789959717E-1,1.099763031E0,6.388630301E0
1.618941192E1,6.382876740E0,-4.333488464E-1,1.133293304E0,6.497173263E0
1.619942292E1,6.603667603E0,-1.478924561E-1,1.077160034E0,6.692575866E0
1.620943392E1,7.172484741E0,1.841171265E-1,1.008452911E0,7.245371885E0
1.621944492E1,7.711813202E0,5.542973328E-1,9.642947388E-1,7.791609124E0
1.622945592E1,8.046068115E0,8.149053955E-1,8.102650452E-1,8.127718767E0
1.623946792E1,8.417745209E0,9.333091736E-1,5.430706787E-1,8.486720578E0
1.624947892E1,8.934470673E0,9.366023254E-1,2.754272461E-1,8.987649875E0
1.625948992E1,9.484277344E0,9.301657104E-1,-1.092727661E-1,9.530407416E0
1.626950092E1,1.000953506E1,9.795629883E-1,-7.783813477E-1,1.008742848E1
1.627951192E1,1.034932846E1,1.141077118E0,-1.482217712E0,1.051701602E1
1.628952292E1,1.056742493E1,1.225950623E0,-1.895358582E0,1.080582291E1
1.629953392E1,1.059631485E1,1.156045990E0,-1.938468933E0,1.083402015E1
1.630954592E1,1.068238586E1,8.681945801E-1,-1.610500946E0,1.083793536E1
1.631955692E1,1.088895630E1,5.104385376E-1,-1.081051941E0,1.095438680E1
1.632956792E1,1.122006775E1,8.652008057E-2,-4.924758911E-1,1.123120379E1
1.633957892E1,1.167137924E1,-3.487747192E-1,-4.266128540E-2,1.167666721E1
1.634958992E1,1.221175552E1,-5.920188904E-1,5.231620789E-1,1.223728556E1
1.635960092E1,1.298998718E1,-6.701564026E-1,8.825646973E-1,1.303716983E1
1.636961192E1,1.340791809E1,-5.159770203E-1,1.168919220E0,1.346866259E1
1.637962392E1,1.366493362E1,-3.320095825E-1,1.368753662E0,1.373732608E1
1.638963492E1,1.375399841E1,-1.933978271E-1,1.511257324E0,1.383812754E1
1.639964592E1,1.389695114E1,-2.508782959E-1,1.565594330E0,1.398711109E1
1.640965692E1,1.403840698E1,-5.809419250E-1,1.541344757E0,1.413471287E1
1.641966792E1,1.433733536E1,-1.210233307E0,1.572330322E0,1.447397915E1
1.642967892E1,1.465707047E1,-1.907333679E0,1.671723633E0,1.487488811E1
1.643968992E1,1.461635513E1,-2.406545563E0,1.954785004E0,1.494156897E1
1.644970092E1,1.421638687E1,-2.409988403E0,2.390828247E0,1.461607880E1
1.645971292E1,1.402044434E1,-1.816921692E0,2.762205963E0,1.440499377E1
1.646972392E1,1.422402100E1,-7.631130981E-1,2.926115112E0,1.454191406E1
1.647973492E1,1.496108826E1,3.339555359E-1,2.961142273E0,1.525496810E1
1.648974592E1,1.556014252E1,1.015338593E0,3.032843170E0,1.588543626E1
1.649975692E1,1.560115723E1,9.632469177E-1,2.838996277E0,1.588659345E1
1.650976792E1,1.489238113E1,2.451901245E-1,2.540367279E0,1.510948708E1
1.651977892E1,1.378857651E1,-7.327262878E-1,2.386786652E0,1.401279702E1
1.652979092E1,1.278700928E1,-1.664239197E0,2.456691284E0,1.312679056E1
1.653980192E1,1.209604614E1,-2.309397583E0,2.784359894E0,1.262538354E1
1.654981292E1,1.147947830E1,-2.457140350E0,3.244053955E0,1.217948467E1
1.655982392E1,1.113175140E1,-2.185155945E0,3.332220612E0,1.182347200E1
1.656983492E1,1.090796677E1,-1.726210327E0,2.911295929E0,1.142099755E1
1.657984592E1,1.075693085E1,-1.329684906E0,2.195035400E0,1.105883374E1
1.658985692E1,1.055006104E1,-1.068328400E0,1.570833435E0,1.071973092E1
1.659986892E1,1.045710434E1,-9.449848938E-1,1.152453461E0,1.056277315E1
1.660987992E1,1.037058426E1,-8.773255920E-1,8.352630615E-1,1.044109106E1
1.661989092E1,1.015263748E1,-7.297325134E-1,9.364526367E-1,1.022181495E1
1.662990192E1,1.012389725E1,-6.721023560E-1,1.260229340E0,1.022414764E1
1.663991292E1,1.021041733E1,-5.837860107E-1,1.626068573E0,1.035555537E1
1.664992392E1,1.026250900E1,-4.219725037E-1,1.856888580E0,1.043768111E1
1.665993492E1,1.022448807E1,-3.701802063E-1,1.735640717E0,1.037736182E1
1.666994692E1,1.018886215E1,-3.644920349E-1,1.379531250E0,1.028828814E1
1.667995792E1,1.007135651E1,-2.680924988E-1,9.696835327E-1,1.012148120E1
