"Time (s)","Acceleration x (m/s^2)","Acceleration y (m/s^2)","Acceleration z (m/s^2)","Absolute acceleration (m/s^2)"
2.028916962E-3,-3.285368042E0,1.321302338E0,9.311686249E0,9.962278044E0
1.203891682E-2,-1.801054688E0,1.289568329E0,9.495054932E0,9.750018083E0
2.204991691E-2,-1.150657196E0,9.051676941E-1,1.008557693E1,1.019128072E1
3.205991676E-2,-5.381309509E-1,7.418572998E-1,1.032268387E1,1.036328806E1
4.207091685E-2,-1.282832336E-1,8.681945801E-1,1.076291840E1,1.079864023E1
5.208191695E-2,-3.641926575E-1,9.454339600E-1,1.108025848E1,1.112648236E1
6.209191680E-2,-6.777905273E-1,1.124162292E0,1.093131821E1,1.100985280E1
7.210291689E-2,-7.125183105E-1,1.538949738E0,1.078088104E1,1.091345246E1
8.211291675E-2,-3.555107117E-1,1.999691620E0,1.049632278E1,1.069102177E1
9.212391684E-2,-2.128573608E-1,2.196083221E0,1.018706589E1,1.042326250E1
1.021339167E-1,-1.902543640E-1,2.733166351E0,9.929152222E0,1.030021645E1
1.121449168E-1,-2.186952209E-1,3.084635468E0,9.667496338E0,1.015003887E1
1.221559169E-1,-3.851490784E-1,2.919229431E0,9.310488739E0,9.765011052E0
1.321659167E-1,-3.155438232E-1,2.816992035E0,9.214538269E0,9.640680865E0
1.421769168E-1,2.439926147E-2,2.833906860E0,9.770931244E0,1.017362869E1
1.521869167E-1,2.779719543E-1,2.735860748E0,1.009201355E1,1.045996845E1
1.621979168E-1,1.987866211E-1,2.611020355E0,1.008677444E1,1.042113056E1
1.722079166E-1,-6.691085815E-2,2.563569031E0,9.853709106E0,1.018194217E1
1.822189167E-1,-3.782633972E-1,2.729424133E0,9.673483887E0,1.005828662E1
1.922289166E-1,-7.217990112E-1,3.012784882E0,9.529034271E0,1.001999804E1
2.022399167E-1,-9.153465271E-1,3.232078857E0,9.280251617E0,9.869511796E0
2.122509168E-1,-1.128203888E0,3.216810608E0,8.969946899E0,9.595866916E0
2.222609166E-1,-1.443448334E0,3.272943878E0,8.472381592E0,9.196572979E0
2.322715418E-1,-1.649120636E0,3.222049713E0,7.845934296E0,8.640595361E0
2.422815417E-1,-1.745370483E0,3.260519714E0,7.331304474E0,8.211292969E0
2.522925418E-1,-1.706900482E0,3.454366608E0,6.823410645E0,7.836140041E0
2.623025416E-1,-1.639390869E0,3.454366608E0,6.674769745E0,7.692385991E0
2.723135417E-1,-7.863148499E-1,3.737727356E0,7.377258911E0,8.307397058E0
2.823245418E-1,1.404080200E-1,4.102518768E0,8.575517120E0,9.507358652E0
2.923345417E-1,1.926493835E-1,3.812272339E0,9.308542786E0,1.006079037E1
3.023455418E-1,1.850152588E-1,3.686683502E0,9.273964691E0,9.981597416E0
3.123555416E-1,6.735992432E-3,3.500620422E0,9.049132233E0,9.702637934E0
3.223665417E-1,-2.053729248E-1,3.264261932E0,9.073232117E0,9.644745981E0
3.323765416E-1,-2.115101624E-1,3.079695740E0,9.351204071E0,9.847551979E0
3.423875417E-1,-7.080276489E-2,2.986289978E0,9.557325439E0,1.001326173E1
3.523975415E-1,-5.328918457E-2,2.918031921E0,9.608668671E0,1.004212446E1
3.624085416E-1,-5.254074097E-2,2.885998535E0,9.824070740E0,1.023934148E1
3.724195417E-1,-1.266366577E-1,2.893932037E0,9.997559967E0,1.040875039E1
3.824295416E-1,-2.320175171E-1,2.969824219E0,9.825118561E0,1.026677373E1
3.924405416E-1,-2.930905151E-1,3.106190643E0,9.596693573E0,1.009112729E1
4.024505420E-1,-4.486170959E-1,2.974314880E0,9.469308472E0,9.935572919E0
4.124615416E-1,-4.272116089E-1,3.066373444E0,9.484427032E0,9.976949032E0
4.224715419E-1,-5.029541016E-1,3.069666595E0,9.354197845E0,9.857831058E0
4.324825415E-1,-6.454577637E-1,2.678529968E0,9.354048157E0,9.751377104E0
4.424935416E-1,-6.403683472E-1,2.129172363E0,9.606273651E0,9.860220080E0
4.525035420E-1,-5.776487732E-1,1.712888031E0,1.001432510E1,1.017616680E1
4.625145416E-1,-4.547543335E-1,1.195264435E0,9.750124512E0,9.833635471E0
4.725245419E-1,-8.810678101E-1,9.870474243E-1,9.458381195E0,9.550472132E0
4.825355415E-1,-9.593550110E-1,1.203946381E0,9.215885468E0,9.343575005E0
4.925455418E-1,-9.862989807E-1,1.577120361E0,8.742270355E0,8.937974339E0
5.025565419E-1,-7.424560547E-1,2.145189056E0,8.257578278E0,8.563917100E0
5.125665418E-1,3.126997375E-1,2.338437195E0,9.185199280E0,9.483351488E0
5.225775419E-1,-3.320095825E-1,2.587668915E0,9.810598755E0,1.015155696E1
5.325885415E-1,-1.211430817E0,2.307451630E0,1.031774414E1,1.064179223E1
5.425985418E-1,-1.173110504E0,1.601819000E0,1.025592270E1,1.044633729E1
5.526095419E-1,-1.454375610E0,1.152154083E0,1.019365219E1,1.036113953E1
5.626195418E-1,-1.600920868E0,1.504371643E0,9.656569061E0,9.903302868E0
5.726305419E-1,-1.810335388E0,1.205892334E0,9.078171844E0,9.335132274E0
5.826405417E-1,-1.993404694E0,9.499246216E-1,8.811875610E0,9.084336565E0
5.926515418E-1,-1.878144379E0,5.601351929E-1,9.168434143E0,9.375572643E0
6.026615417E-1,-1.605860596E0,2.263293457E-1,9.262139282E0,9.403044045E0
6.126725418E-1,-1.440304871E0,6.047424316E-1,9.776918793E0,9.900925846E0
6.226835418E-1,-1.182540894E0,2.609822845E0,9.797725525E0,1.020808521E1
6.326935417E-1,-9.897418213E-1,4.437821503E0,9.479187927E0,1.051327030E1
6.427045418E-1,-8.675958252E-1,4.271667023E0,9.562265167E0,1.050889037E1
6.527145416E-1,-7.017407227E-1,3.262166290E0,9.669591980E0,1.022913379E1
6.627255417E-1,-7.740403748E-1,2.593207397E0,9.520651703E0,9.897811473E0
6.727355416E-1,-1.372495880E0,1.603166199E0,9.083860016E0,9.325792170E0
6.827465417E-1,-1.207838287E0,1.029858398E0,8.006550293E0,8.162372770E0
6.927575418E-1,-6.360273743E-1,8.144563293E-1,7.264692993E0,7.337822171E0
7.027675416E-1,-1.267863464E-1,7.867639160E-1,7.334747314E0,7.377912334E0
7.127785417E-1,4.906796265E-1,9.208850098E-1,8.566685486E0,8.629999763E0
7.227885416E-1,1.170865173E0,9.562115479E-1,9.646689606E0,9.764419395E0
7.327995417E-1,1.703757019E0,1.057101746E0,1.039752823E1,1.058909087E1
7.428095415E-1,1.970801697E0,1.000369720E0,1.015997223E1,1.039758792E1
7.528205416E-1,1.707499237E0,4.782554626E-1,9.454339600E0,9.619190153E0
7.628315417E-1,1.310824127E0,-2.017803955E-1,9.090146942E0,9.186389206E0
7.728415416E-1,1.652114410E0,-6.774911499E-1,8.951385498E0,9.127747730E0
7.828525417E-1,2.381397858E0,5.927673340E-2,8.593330078E0,8.917392630E0
7.928625415E-1,2.150278473E0,4.534071350E-1,8.598120117E0,8.874510978E0
8.028735416E-1,1.747316437E0,-7.409591675E-2,7.827223206E0,8.020226184E0
8.128835419E-1,1.377435608E0,-3.869453430E-1,6.285429382E0,6.446214243E0
8.228945415E-1,1.860780487E0,-2.534230042E-1,5.129383392E0,5.462353085E0
8.329045419E-1,2.716101837E0,-2.080673218E-2,4.974455566E0,5.667702382E0
8.429155420E-1,3.092119904E0,9.205856323E-2,6.389463043E0,7.098937826E0
8.529265416E-1,3.451672211E0,3.992198181E-1,8.007298737E0,8.728702685E0
8.629365419E-1,3.784430237E0,5.155279541E-1,8.854686584E0,9.643295899E0
8.729475415E-1,4.120780792E0,1.428030396E-1,8.961863708E0,9.864898792E0
8.829575418E-1,3.596570892E0,-1.424138489E0,7.351362762E0,8.306986643E0
8.929685419E-1,1.773661652E0,-1.905238037E0,5.892496490E0,6.441841547E0
9.029785418E-1,4.843927002E-1,-1.723515930E0,4.650379486E0,4.983088682E0
9.129895419E-1,1.824705505E-1,-2.183659058E0,3.701652374E0,4.301615125E0
9.229995417E-1,7.464976501E-1,-2.050885162E0,3.602708130E0,4.212231542E0
9.330105418E-1,1.924547882E0,-1.838027802E0,3.583547974E0,4.463636055E0
9.430215419E-1,3.025059357E0,-1.949545898E0,3.760629730E0,5.205194453E0
9.530315418E-1,3.439397736E0,-2.268233185E0,4.323159943E0,5.971938584E0
9.630425419E-1,3.902085571E0,-2.211950226E0,4.729115753E0,6.517939200E0
9.730525417E-1,3.782035217E0,-2.252665558E0,4.963528290E0,6.634373036E0
9.830635418E-1,3.353177032E0,-2.627037048E0,4.588108978E0,6.260660018E0
9.930735417E-1,3.152294769E0,-2.715054016E0,4.133803711E0,5.864879687E0
1.003084542E0,3.776646423E0,-2.875819702E0,4.053121490E0,6.241890017E0
1.013095542E0,4.120481415E0,-2.853516083E0,4.176764374E0,6.524284004E0
1.023105542E0,4.351301422E0,-2.780318298E0,4.166286163E0,6.634902735E0
1.033116542E0,4.941823425E0,-2.918480988E0,4.002377014E0,6.997011634E0
1.043126542E0,5.272036743E0,-3.503913574E0,3.734284515E0,7.349602887E0
1.053137542E0,5.954168243E0,-3.915108490E0,4.030069427E0,8.186675366E0
1.063147542E0,5.960754547E0,-4.282743988E0,4.544848938E0,8.632968360E0
1.073158542E0,5.707780609E0,-4.842879181E0,4.498295746E0,8.733092400E0
1.083168542E0,5.766009521E0,-5.109774170E0,3.759432220E0,8.572630197E0
1.093179542E0,5.612578583E0,-5.084626465E0,3.104843445E0,8.185017865E0
1.103190542E0,6.153104553E0,-5.435496826E0,2.736459503E0,8.654104922E0
1.113200542E0,7.045399017E0,-6.235133972E0,2.810256042E0,9.818965424E0
1.123211542E0,8.188272400E0,-6.793023834E0,3.235671387E0,1.112036632E1
1.133221542E0,8.788973236E0,-7.226522369E0,3.100801849E0,1.179337306E1
1.143232542E0,8.625513153E0,-7.834108887E0,2.661465454E0,1.195224404E1
1.153242542E0,8.677904205E0,-8.566236420E0,1.796114960E0,1.232527715E1
1.163253542E0,9.343869324E0,-9.558073883E0,1.037941589E0,1.340678907E1
1.173264542E0,1.014215927E1,-1.002046234E1,1.357377319E0,1.432185510E1
1.183274542E0,1.145552811E1,-1.019649628E1,1.688937836E0,1.542887460E1
1.193285542E0,1.340567276E1,-1.020233414E1,2.659968567E0,1.705506132E1
1.203295542E0,1.551912781E1,-9.927655334E0,3.996988220E0,1.885146104E1
1.213306542E0,1.676857956E1,-9.746082916E0,4.628824310E0,1.993984471E1
1.223316542E0,1.743469437E1,-9.508975983E0,4.666845245E0,2.040021168E1
1.233327167E0,1.786190598E1,-9.615853729E0,4.745731201E0,2.083348969E1
1.243337167E0,1.763123566E1,-9.895472260E0,5.433850250E0,2.093579639E1
1.253348167E0,1.793315781E1,-9.610315247E0,6.477330322E0,2.135209864E1
1.263359167E0,1.786190598E1,-8.805588684E0,7.074438629E0,2.113371144E1
1.273369167E0,1.733560043E1,-8.130342865E0,7.005881195E0,2.038891583E1
1.283380167E0,1.708831467E1,-7.199129333E0,6.328090668E0,1.959292456E1
1.293390167E0,1.701571564E1,-6.158942413E0,5.166655884E0,1.881917860E1
1.303401167E0,1.735565872E1,-5.245092773E0,4.208797760E0,1.861300262E1
1.313411167E0,1.779095352E1,-4.474195862E0,3.658092957E0,1.870609793E1
1.323422167E0,1.748708542E1,-3.933669891E0,3.498524780E0,1.826229972E1
1.333433167E0,1.733440292E1,-4.264032898E0,3.095862122E0,1.811761197E1
1.343443167E0,1.709175751E1,-4.257895660E0,2.691552887E0,1.781859442E1
1.353454167E0,1.668535263E1,-3.695365448E0,2.173031158E0,1.722726858E1
1.363464167E0,1.628792908E1,-3.134481812E0,1.524579620E0,1.665670894E1
1.373475167E0,1.588706268E1,-2.561024323E0,1.160087585E0,1.613392108E1
1.383485167E0,1.529639099E1,-2.094893646E0,1.556762695E-1,1.543996088E1
1.393496167E0,1.455498276E1,-2.125430145E0,-4.909790039E-1,1.471754180E1
1.403506167E0,1.359817245E1,-2.395318909E0,-5.640270996E-1,1.381904387E1
1.413517167E0,1.325164307E1,-3.045117645E0,-2.944377136E-1,1.360020143E1
1.423528167E0,1.265094223E1,-3.860172729E0,-6.045927429E-1,1.324057420E1
1.433538167E0,1.137933655E1,-3.975433044E0,-6.812333679E-1,1.207300489E1
1.443549167E0,1.074540482E1,-4.284390564E0,-9.542655945E-1,1.160734035E1
1.453559167E0,1.043839325E1,-4.803810425E0,-8.993298340E-1,1.152585972E1
1.463570167E0,9.255403290E0,-5.103487244E0,-8.942404175E-1,1.060696649E1
1.473580167E0,7.924820251E0,-5.517825623E0,-2.330503693E0,9.933802046E0
1.483591167E0,4.924908600E0,-6.616391144E0,-5.234614563E0,9.768958292E0
1.493602167E0,2.040107574E0,-8.269253998E0,-8.705147552E0,1.217875997E1
1.503612167E0,3.409010925E0,-8.191565552E0,-6.502478027E0,1.100024191E1
1.513623167E0,5.275030518E0,-7.740852814E0,-2.333198090E0,9.653525914E0
1.523633167E0,5.548062744E0,-7.729626160E0,-1.030157776E0,9.570232276E0
1.533644167E0,5.411696320E0,-8.098459167E0,1.975891113E-2,9.740220139E0
1.543654167E0,5.412594452E0,-8.507109375E0,5.007087708E-1,1.009543451E1
1.553665167E0,5.993985443E0,-8.095914459E0,1.616488495E0,1.020219229E1
1.563675167E0,6.144123230E0,-8.425529022E0,2.790497131E0,1.079475168E1
1.573686167E0,5.597310333E0,-8.364306335E0,2.938539276E0,1.048458471E1
1.583697167E0,5.289250946E0,-7.548053741E0,3.233875122E0,9.767662932E0
1.593707167E0,5.829028473E0,-6.684798889E0,3.171754303E0,9.419348942E0
1.603718167E0,6.185886383E0,-5.791606293E0,2.599194946E0,8.863617104E0
1.613728167E0,6.408772888E0,-4.938530273E0,1.891616364E0,8.309010992E0
1.623739167E0,6.695127411E0,-4.311334534E0,1.395547943E0,8.084546405E0
1.633749167E0,7.000492401E0,-3.767066345E0,1.269809418E0,8.050471953E0
1.643760167E0,7.097939758E0,-3.548820190E0,6.703060913E-1,7.963930174E0
1.653770167E0,7.149582367E0,-3.395838318E0,3.532653809E-2,7.915143326E0
1.663781167E0,7.201224976E0,-3.166215820E0,-4.337979126E-1,7.878498867E0
1.673792167E0,6.645430756E0,-3.363505554E0,-1.044527893E0,7.521034374E0
1.683802167E0,6.950945435E0,-3.681893463E0,-7.041357422E-1,7.897327969E0
1.693813167E0,7.522007904E0,-3.734733582E0,-7.873626709E-2,8.398513990E0
1.703823167E0,7.813751221E0,-3.373684387E0,-1.892065430E-1,8.513063702E0
1.713834167E0,9.470655670E0,-3.116369476E0,-1.509610748E0,1.008384858E1
1.723844167E0,1.068478088E1,-2.750829620E0,-1.595382385E0,1.114795278E1
1.733855167E0,1.067624863E1,-2.584226074E0,-1.721719666E0,1.111867023E1
1.743865167E0,1.099673218E1,-2.698139191E0,-1.010099487E0,1.136786588E1
1.753876167E0,1.054422318E1,-3.189267883E0,-8.096662903E-1,1.104570647E1
1.763887167E0,9.732311554E0,-4.416565704E0,-1.414857788E0,1.078080532E1
1.773897167E0,8.957223358E0,-4.727169800E0,-2.309846649E0,1.038813632E1
1.783908167E0,8.482560425E0,-4.901706848E0,-3.464545441E0,1.039151753E1
1.793918167E0,1.003588028E1,-4.890180817E0,-3.633094940E0,1.174019337E1
1.803929167E0,1.215158066E1,-3.529210968E0,-2.404749298E0,1.288018097E1
1.813939167E0,1.248568588E1,-2.486179962E0,-6.075865173E-1,1.274529733E1
1.823950167E0,1.158500885E1,-3.474873962E0,-2.733316040E-1,1.209801179E1
1.833961167E0,1.102771774E1,-4.332590332E0,1.785786438E-1,1.184963240E1
1.843971167E0,1.117246674E1,-4.217928772E0,1.358574829E0,1.201917891E1
1.853982167E0,1.151300858E1,-4.060306549E0,3.359763336E0,1.266189028E1
1.863992167E0,1.119926102E1,-3.488795013E0,4.244273987E0,1.247433364E1
1.874003167E0,1.170940018E1,-3.946543121E0,3.708987122E0,1.290123407E1
1.884013167E0,1.278416519E1,-4.244273987E0,2.085463257E0,1.363077028E1
1.894024167E0,1.218196747E1,-4.413422241E0,1.423090668E0,1.303471574E1
1.904034167E0,1.023361908E1,-4.484973450E0,1.407672729E0,1.126159353E1
1.914045167E0,8.885522461E0,-5.454656982E0,1.499431915E0,1.053347465E1
1.924056167E0,8.096363525E0,-6.340065765E0,1.078207855E0,1.033973251E1
1.934066167E0,7.359595642E0,-6.198460236E0,8.708889771E-1,9.661418370E0
1.944077167E0,7.408693542E0,-5.861959991E0,8.144563293E-1,9.482333788E0
1.954087167E0,8.435558167E0,-5.444478149E0,1.152004395E0,1.010584475E1
1.964098167E0,8.831035767E0,-5.242847443E0,1.537303162E0,1.038450495E1
1.974108167E0,9.535321198E0,-4.884642334E0,1.200952606E0,1.078074062E1
1.984119167E0,9.921218719E0,-3.713328094E0,1.766326904E-1,1.059483768E1
1.994129167E0,1.012314880E1,-3.150797882E0,-6.876699829E-1,1.062443217E1
2.004140167E0,9.198820953E0,-2.758314056E0,-7.532336426E-1,9.632962384E0
2.014151167E0,8.368647308E0,-2.951412506E0,-7.210505676E-1,8.903089771E0
2.024161167E0,7.764054565E0,-2.847977600E0,-3.992198181E-1,8.279546858E0
2.034172167E0,6.763684845E0,-2.522105255E0,-1.095721436E-1,7.219449678E0
2.044182167E0,5.653443604E0,-2.402953033E0,1.077758789E-2,6.142940991E0
2.054193167E0,4.459526367E0,-2.296823730E0,5.548960876E-1,5.046848951E0
2.064203167E0,3.453169098E0,-2.410587158E0,1.728605347E0,4.552294335E0
2.074214167E0,2.943179626E0,-2.621498566E0,2.216889954E0,4.522074978E0
2.084224167E0,2.766546936E0,-2.827320557E0,1.988315277E0,4.427292753E0
2.094235167E0,3.262465668E0,-2.740351410E0,2.689756622E0,5.038650491E0
2.104246167E0,4.287234650E0,-2.583477631E0,3.865262146E0,6.324159159E0
2.114256167E0,4.212839355E0,-3.169059906E0,4.003873901E0,6.619815884E0
2.124267167E0,4.247567139E0,-3.525468750E0,3.124153290E0,6.342798301E0
2.134277167E0,4.201762390E0,-3.395988007E0,1.465003510E0,5.597658172E0
2.144288167E0,4.614304504E0,-3.527115326E0,-3.580554199E-1,5.818982064E0
2.154298167E0,5.260361023E0,-3.498225403E0,-1.492546234E0,6.491276710E0
2.164309167E0,6.446494446E0,-2.903212738E0,-1.797761536E0,7.295058696E0
2.174319167E0,7.853119354E0,-2.216141510E0,-2.009122009E0,8.403531283E0
2.184330167E0,9.308393097E0,-2.184108124E0,-1.666634216E0,9.705368615E0
2.194341167E0,1.150133286E1,-3.521876221E0,-3.597019958E-1,1.203385454E1
2.204351167E0,1.199650314E1,-5.477858734E0,-3.119512939E-1,1.319167683E1
2.214362167E0,1.187046524E1,-6.799011383E0,-9.978250122E-1,1.371605466E1
2.224372167E0,1.178469360E1,-7.551795959E0,-1.667682037E0,1.409573655E1
2.234383167E0,1.156285492E1,-7.809709625E0,-2.223925323E0,1.412929659E1
2.244393167E0,1.109388016E1,-7.402256927E0,-2.419867859E0,1.355445849E1
2.254404167E0,1.060948746E1,-6.844516754E0,-2.321971436E0,1.283745244E1
2.264415167E0,9.647288361E0,-6.354136505E0,-2.281256104E0,1.177494598E1
2.274425167E0,8.405171356E0,-6.019133148E0,-1.997895355E0,1.052940906E1
2.284436167E0,7.364834747E0,-5.810616760E0,-1.463506622E0,9.494519979E0
2.294446167E0,6.744674377E0,-5.772146759E0,-9.222322083E-1,8.925179153E0
2.304457167E0,6.628216553E0,-5.724845123E0,-4.745132446E-1,8.771104216E0
2.314467167E0,7.036717072E0,-5.619314575E0,-2.067201233E-1,9.007486700E0
2.324478167E0,7.089706879E0,-5.496120758E0,-9.190887451E-2,8.971049785E0
2.334488167E0,6.863826599E0,-5.450615387E0,-2.965333557E-1,8.769792227E0
2.344499167E0,6.222859497E0,-5.309608612E0,-7.545808411E-1,8.214944685E0
2.354509167E0,5.876330109E0,-5.126688995E0,-9.364526367E-1,7.854370703E0
2.364520167E0,5.952521667E0,-4.929698639E0,-7.982899475E-1,7.769923405E0
2.374531167E0,4.868925018E0,-4.746329956E0,-3.653901672E-1,6.809375071E0
2.384541167E0,4.563560028E0,-5.078638916E0,-1.482217712E0,6.986817782E0
2.394552167E0,6.530619507E0,-5.625002747E0,-2.762355652E0,9.050980930E0
2.404562167E0,8.831634521E0,-6.089037781E0,-3.718567200E0,1.135349688E1
2.414573167E0,1.094074860E1,-6.860832825E0,-4.150269470E0,1.356450307E1
2.424583167E0,1.184397034E1,-7.217541046E0,-3.468587036E0,1.429697969E1
2.434594167E0,1.149729126E1,-6.313570862E0,-2.573598175E0,1.336683549E1
2.444604167E0,1.061233154E1,-5.813311157E0,-2.175725555E0,1.229430556E1
2.454615167E0,9.665849762E0,-5.454507294E0,-1.919009399E0,1.126334313E1
2.464626167E0,8.799301758E0,-5.301824799E0,-1.009800110E0,1.032263309E1
2.474636167E0,8.211773529E0,-5.494324493E0,4.435276794E-1,9.890275170E0
2.484647167E0,6.957681427E0,-5.033881989E0,1.788929901E0,8.772090338E0
2.494657167E0,5.601052551E0,-4.777914276E0,2.444416809E0,7.757282259E0
2.504668167E0,4.376898193E0,-4.845423889E0,2.434687042E0,6.968720934E0
2.514678167E0,3.081192627E0,-4.806953888E0,1.772763519E0,5.978565395E0
2.524689167E0,1.546134796E0,-4.348607025E0,1.055455170E0,4.734437821E0
2.534699167E0,9.418414307E-1,-4.074227600E0,2.206411743E-1,4.187490698E0
2.544710167E0,7.219487000E-1,-2.935395813E0,2.787203979E-1,3.035694906E0
2.554721167E0,7.756869507E-1,-4.347858582E0,-8.161029053E-1,4.491279154E0
2.564731167E0,-3.893403625E-1,-7.987390137E0,-1.961520996E0,8.233926872E0
2.574742167E0,-3.264561310E0,-1.507649826E1,-3.974534912E0,1.592969203E1
2.584752167E0,-7.946674805E0,-2.348241806E1,-5.996230774E0,2.550545788E1
2.594763167E0,-1.319296509E1,-3.199596405E1,-8.115523682E0,3.554796433E1
2.604773167E0,-1.619706802E1,-4.094285889E1,-1.706346634E1,4.722101852E1
2.614784167E0,-1.366583176E1,-4.016836945E1,-1.448762283E1,4.483463033E1
2.624794167E0,-8.585246887E0,-3.198548584E1,-7.997868347E0,3.406968838E1
2.634805167E0,-6.499933319E0,-2.138138718E1,-2.461481323E0,2.248269870E1
2.644816167E0,-7.140750732E0,-1.505045242E1,1.636247406E0,1.673869005E1
2.654826167E0,-6.775510254E0,-1.185684357E1,4.939877472E0,1.452221292E1
2.664837167E0,-5.726042633E0,-9.135053558E0,7.715555420E0,1.325769826E1
2.674847167E0,-4.471052399E0,-6.876250763E0,9.261989594E0,1.237164441E1
2.684858167E0,-3.317551117E0,-5.116809540E0,1.049392776E1,1.213714980E1
2.694868167E0,-2.277813263E0,-3.581302643E0,9.889335022E0,1.076164992E1
2.704879167E0,-1.712139587E0,-2.557880859E0,8.371042328E0,8.918998044E0
2.714889167E0,-1.618284760E0,-2.031425629E0,6.529272308E0,7.026872172E0
2.724900167E0,-1.648821259E0,-1.834734650E0,4.980892181E0,5.558250597E0
2.734911167E0,-1.741628265E0,-1.630259857E0,3.677851868E0,4.383789522E0
2.744921167E0,-1.893861694E0,-1.599423981E0,2.844834137E0,3.773320879E0
2.754932167E0,-2.023641815E0,-1.757794647E0,2.291434937E0,3.526420605E0
2.764942167E0,-2.201322327E0,-2.118544464E0,2.174677734E0,3.750103183E0
2.774953167E0,-2.491568756E0,-2.721340942E0,3.040327606E0,4.780920763E0
2.784963167E0,-2.703677673E0,-3.295846252E0,3.790268097E0,5.704262242E0
2.794974167E0,-2.631228333E0,-3.607498169E0,3.937711487E0,5.953400485E0
2.804984167E0,-2.650089111E0,-3.824546814E0,3.548969879E0,5.851949917E0
2.814995167E0,-2.666854248E0,-3.949536896E0,2.809208221E0,5.531962048E0
2.825006167E0,-2.777923279E0,-4.134851532E0,1.836381226E0,5.309063094E0
2.835016167E0,-3.199446716E0,-4.662055206E0,-1.745370483E-1,5.657002848E0
2.845027167E0,-4.403692474E0,-7.001989288E0,-8.078849945E0,1.156236039E1
2.855037167E0,-4.274660797E0,-8.734187164E0,-7.876171417E0,1.251370555E1
2.865048167E0,-3.772155762E0,-1.011865814E1,-7.399861908E0,1.309100294E1
2.875058167E0,-2.787503357E0,-1.226235031E1,-1.153201904E1,1.706232321E1
2.885069167E0,-2.317181396E-1,-1.557166855E1,-2.110715744E1,2.623056709E1
2.895079167E0,1.951491852E0,-1.839150467E1,-2.319396790E1,2.966506213E1
2.905090167E0,1.304986267E0,-1.891616364E1,-1.351404739E1,2.328419448E1
2.915101167E0,7.670050049E-1,-1.808958252E1,-5.885161743E0,1.903828829E1
2.925111167E0,1.576072540E0,-1.705897568E1,-2.039508820E0,1.725260131E1
2.935122167E0,3.236419830E0,-1.579320786E1,7.035369873E-3,1.612141052E1
2.945132167E0,4.554728394E0,-1.376417725E1,2.942880249E-1,1.450119759E1
2.955143167E0,4.407734070E0,-1.088611221E1,-8.551716614E-1,1.177569010E1
2.965153167E0,2.088457031E0,-9.623787231E0,-2.528242493E0,1.016715022E1
2.975164167E0,-2.625689850E0,-1.380219818E1,-2.219584351E0,1.422397541E1
2.985174167E0,-5.713618469E0,-1.742077332E1,3.013233948E-1,1.833629119E1
2.995185167E0,-6.439309387E0,-1.936882233E1,1.137634277E-1,2.041149004E1
3.005196167E0,-5.690117340E0,-1.692425583E1,-1.392254791E0,1.790938983E1
3.015206167E0,-4.248016205E0,-1.048794022E1,-9.650431824E-1,1.135666500E1
3.025217167E0,-4.784799957E0,-6.079158325E0,2.153721313E0,8.030503849E0
3.035227167E0,-4.431983643E0,-4.078119507E0,3.299738159E0,6.867445642E0
3.045238167E0,-3.784579926E0,-2.856809235E0,3.350931702E0,5.806302394E0
3.055248167E0,-3.717968445E0,-1.797312469E0,4.073329468E0,5.800485706E0
3.065259167E0,-4.843927002E0,-2.951412506E0,4.078119507E0,6.986094996E0
3.075269167E0,-6.046077118E0,-5.264103241E0,4.279450836E0,9.087328040E0
3.085280167E0,-6.679709473E0,-7.020101624E0,4.273762665E0,1.059081643E1
3.095291167E0,-7.090455322E0,-8.717571716E0,3.967499542E0,1.191686477E1
3.105301167E0,-7.042105865E0,-1.017119888E1,3.467838593E0,1.284797440E1
3.115312167E0,-6.708000641E0,-1.106888214E1,2.999013519E0,1.328576330E1
3.125322167E0,-6.182593231E0,-1.126093277E1,2.658471680E0,1.311870945E1
3.135333167E0,-5.586532745E0,-1.085677322E1,2.308649139E0,1.242613109E1
3.145343167E0,-5.114115143E0,-1.006506958E1,2.002984772E0,1.146611300E1
3.155354167E0,-4.715344391E0,-9.273815002E0,1.913321228E0,1.057822837E1
3.165364167E0,-4.435875549E0,-8.827742615E0,1.662891998E0,1.001854487E1
3.175375167E0,-4.236639862E0,-8.668623505E0,1.154249725E0,9.717326958E0
3.185385167E0,-3.980821838E0,-8.670120392E0,1.013692017E0,9.594034689E0
3.195396167E0,-3.686533813E0,-8.795559540E0,1.199755096E0,9.612065931E0
3.205407167E0,-3.241509247E0,-9.030870209E0,1.214125214E0,9.671509653E0
3.215417167E0,-2.747087402E0,-9.242979126E0,9.791139221E-1,9.692152310E0
3.225428167E0,-2.403102722E0,-9.391170959E0,7.771838379E-1,9.724865521E0
3.235438583E0,-2.254162445E0,-9.475445709E0,6.197113037E-1,9.759577953E0
3.245449584E0,-2.286944275E0,-9.507479095E0,7.143145752E-1,9.804719179E0
3.255459583E0,-2.355052643E0,-9.416318665E0,9.818083191E-1,9.755884261E0
3.265470583E0,-2.442021790E0,-9.309141541E0,1.232686615E0,9.702736878E0
3.275480583E0,-2.481090546E0,-9.216035156E0,1.443448334E0,9.652702077E0
3.285491583E0,-2.282004547E0,-9.113797760E0,1.191671906E0,9.470424293E0
3.295502583E0,-1.941163330E0,-9.027127991E0,5.653742981E-1,9.250773099E0
3.305512583E0,-1.529519348E0,-8.845405884E0,1.276844788E-1,8.977579741E0
3.315523583E0,-1.204694824E0,-8.754993896E0,-2.246827698E-1,8.840344456E0
3.325533583E0,-8.568182373E-1,-8.935967560E0,-7.855664063E-1,9.011257864E0
3.335544583E0,-4.867877197E-1,-9.277108154E0,-1.655407562E0,9.436210690E0
3.345554583E0,-1.713935852E-1,-9.442065125E0,-2.522105255E0,9.774609173E0
3.355565583E0,-3.529660034E-1,-9.640702057E0,-2.974763947E0,1.009539210E1
3.365575583E0,-1.087488556E0,-9.993069305E0,-2.869233398E0,1.045354322E1
3.375586583E0,-2.108365631E0,-1.034828064E1,-2.473007355E0,1.084656089E1
3.385597583E0,-2.995420990E0,-1.034109558E1,-2.131268005E0,1.097511312E1
3.395607583E0,-3.508104858E0,-9.987231445E0,-2.073787537E0,1.078666707E1
3.405618583E0,-3.944447479E0,-9.944869537E0,-2.100731506E0,1.090285141E1
3.415628584E0,-3.879033508E0,-1.032971924E1,-1.937720490E0,1.120289075E1
3.425639583E0,-2.753074951E0,-1.073851913E1,-1.273102570E0,1.115867398E1
3.435649584E0,-1.483265533E0,-1.062954575E1,-4.102967834E-1,1.074037536E1
3.445660583E0,-6.703060913E-1,-1.052596115E1,1.745370483E-1,1.054872654E1
3.455670584E0,-2.311193848E-1,-1.067714676E1,6.617738342E-1,1.070013195E1
3.465681584E0,3.367996216E-2,-1.081111816E1,9.333091736E-1,1.085138131E1
3.475691583E0,3.517684937E-1,-1.096140564E1,8.710386658E-1,1.100158457E1
3.485702584E0,8.669970703E-1,-1.130733627E1,1.215921478E0,1.140552509E1
3.495713583E0,1.167572021E0,-1.179008240E1,1.597627716E0,1.195498564E1
3.505723584E0,1.466650085E0,-1.242042160E1,1.657802582E0,1.261611052E1
3.515734584E0,1.788929901E0,-1.313293991E1,1.373094635E0,1.332515553E1
3.525744583E0,2.022893372E0,-1.354667953E1,7.568261719E-1,1.371777715E1
3.535755584E0,2.096091156E0,-1.369187759E1,-9.342073059E-1,1.388286186E1
3.545765583E0,2.252366180E0,-1.354847580E1,-4.520599365E0,1.445925892E1
3.555776583E0,1.742975464E0,-1.359188553E1,-8.519084473E0,1.613543045E1
3.565786583E0,8.536747742E-1,-1.351868774E1,-8.835825806E0,1.617267747E1
3.575797583E0,4.813989258E-1,-1.341450439E1,-5.802832947E0,1.462373219E1
3.585808584E0,-5.583389282E-2,-1.327379700E1,-1.944905548E0,1.341564243E1
3.595818583E0,-1.206042023E0,-1.322110657E1,2.680924988E-1,1.327870738E1
3.605829583E0,-1.636546783E0,-1.345372284E1,1.887574768E-1,1.355420868E1
3.615839583E0,-2.236648865E0,-1.412298111E1,1.887574768E-1,1.430023856E1
3.625850583E0,-3.202590179E0,-1.518053192E1,3.665876770E-1,1.551900512E1
3.635860583E0,-4.370461578E0,-1.634645737E1,7.866142273E-1,1.693890093E1
3.645871583E0,-5.422623596E0,-1.712019836E1,1.631307678E0,1.803239317E1
3.655881583E0,-6.209686890E0,-1.726030701E1,2.564317474E0,1.852172058E1
3.665892583E0,-6.542893982E0,-1.667277878E1,2.928809509E0,1.814852443E1
3.675902584E0,-6.346801758E0,-1.534668640E1,2.883603516E0,1.685579560E1
3.685913583E0,-5.879922638E0,-1.371717499E1,2.755919037E0,1.517660929E1
3.695924583E0,-5.322930908E0,-1.218256622E1,2.581980743E0,1.354308450E1
3.705934583E0,-4.729415131E0,-1.080857346E1,2.151326294E0,1.199253236E1
3.715945583E0,-4.262086945E0,-9.466314697E0,1.470092926E0,1.048511670E1
3.725955584E0,-3.941453705E0,-8.182883606E0,1.315763855E-1,9.083609071E0
3.735966583E0,-3.669768677E0,-7.334597626E0,-8.289761353E-1,8.243223029E0
3.745976584E0,-3.494632874E0,-6.937922516E0,-7.421566772E-1,7.803718619E0
3.755987583E0,-3.558549957E0,-6.681206360E0,-5.763015747E-2,7.570014363E0
3.765997584E0,-3.680097198E0,-6.769223328E0,8.277786255E-1,7.749239789E0
3.776008584E0,-3.437900848E0,-7.006030884E0,1.344953156E0,7.919124319E0
3.786019583E0,-3.097209320E0,-7.010371857E0,1.670226746E0,7.843957963E0
3.796029584E0,-2.845881958E0,-6.786736908E0,1.926493835E0,7.607247891E0
3.806040583E0,-2.758014679E0,-6.481222229E0,1.826801147E0,7.276681179E0
3.816050583E0,-2.641107788E0,-6.024372253E0,1.790875854E0,6.817312353E0
3.826061584E0,-2.618055725E0,-5.442981262E0,1.894909515E0,6.330161362E0
3.836071583E0,-2.722239075E0,-4.746180267E0,2.290686493E0,5.931615068E0
3.846082584E0,-3.205733643E0,-4.157753906E0,2.774779816E0,5.938269845E0
3.856092583E0,-3.301085358E0,-3.684288483E0,2.912044373E0,5.740309102E0
3.866103583E0,-3.082689514E0,-3.184627533E0,2.891387329E0,5.291970129E0
3.876113583E0,-2.866239624E0,-2.846331024E0,2.668949890E0,4.841510446E0
3.886124583E0,-2.705473938E0,-2.675685883E0,2.411185913E0,4.504742132E0
3.896134583E0,-2.655926971E0,-2.577639771E0,2.126777344E0,4.268648116E0
3.906145583E0,-2.634371796E0,-2.507884827E0,1.819017334E0,4.066721668E0
3.916156583E0,-2.552342377E0,-2.523003387E0,1.467997284E0,3.877500964E0
3.926166583E0,-2.771037598E0,-2.808609467E0,7.698490906E-1,4.019901009E0
3.936177583E0,-3.136427765E0,-3.649111633E0,4.490661621E-3,4.811778777E0
3.946187583E0,-3.618724823E0,-5.329816589E0,-1.153650970E0,6.544694399E0
3.956198583E0,-3.373534698E0,-7.697293396E0,-3.100053406E0,8.957644395E0
3.966208583E0,-2.274669800E0,-1.051967422E1,-7.819140015E0,1.330325596E1
3.976219583E0,1.492695923E0,-1.577524521E1,-2.301613770E1,2.794331936E1
3.986229584E0,3.210373993E0,-1.987911118E1,-2.122870468E1,2.925992934E1
3.996240583E0,1.897603912E0,-2.066527634E1,-9.357490997E0,2.276438412E1
4.006251583E0,2.857707367E0,-2.084714813E1,-3.874991913E0,2.139592576E1
4.016261583E0,4.580923920E0,-2.001068756E1,-1.709295502E0,2.059937309E1
4.026272583E0,5.812562714E0,-1.744232849E1,-1.881138153E0,1.848132542E1
4.036282584E0,6.236780548E0,-1.389949585E1,-2.852168884E0,1.549929946E1
4.046293583E0,4.932542725E0,-1.110241241E1,-4.027075653E0,1.279886235E1
4.056303584E0,8.129594421E-1,-1.083746338E1,-4.456532593E0,1.174615675E1
4.066314583E0,-4.342619476E0,-1.402882690E1,-3.637435913E0,1.512935122E1
4.076324583E0,-6.419400787E0,-1.779768951E1,-1.882185974E0,1.901339219E1
4.086335584E0,-5.928272095E0,-1.935205719E1,-9.367520142E-1,2.026139264E1
4.096345583E0,-2.996917877E0,-1.711166611E1,-2.760260010E-1,1.737431507E1
4.106356584E0,-1.171463928E0,-1.164563278E1,-7.463479614E-1,1.172817658E1
4.116367584E0,-2.169288940E0,-6.810387726E0,4.963677979E-1,7.164745388E0
4.126377583E0,-3.576811981E0,-3.995042267E0,2.862347717E0,6.078402843E0
4.136388584E0,-3.189417572E0,-2.575693817E0,3.486998749E0,5.381983218E0
4.146398583E0,-3.050356750E0,-1.321302338E0,3.623963928E0,4.917685505E0
4.156409584E0,-3.575315094E0,-4.932243347E-1,3.920197906E0,5.328611441E0
4.166419583E0,-5.267396393E0,-2.709665222E0,3.825894012E0,7.051610835E0
4.176430583E0,-6.916816406E0,-5.663921814E0,3.771557007E0,9.702937791E0
4.186440583E0,-7.886050873E0,-7.909851379E0,3.620820465E0,1.174163055E1
4.196451583E0,-8.585995331E0,-1.011761032E1,3.557801514E0,1.373838804E1
4.206461583E0,-8.731043701E0,-1.178454391E1,3.134332123E0,1.499768773E1
4.216472583E0,-7.924371185E0,-1.255020172E1,2.535427551E0,1.505760986E1
4.226483583E0,-6.349346466E0,-1.225291992E1,1.902094574E0,1.393076491E1
4.236492917E0,-4.782854004E0,-1.141032211E1,1.257235565E0,1.243590706E1
4.246503917E0,-3.611689453E0,-1.061442719E1,7.463479614E-1,1.123687681E1
4.256513917E0,-2.934198303E0,-9.971364441E0,4.198768616E-1,1.040259223E1
4.266524917E0,-2.860102386E0,-9.498497772E0,4.930746460E-1,9.932007259E0
4.276534917E0,-3.081791382E0,-9.140741730E0,1.071621552E0,9.705615397E0
4.286545917E0,-3.072510681E0,-9.170380096E0,1.097068634E0,9.733434778E0
4.296555917E0,-2.948568420E0,-9.474248199E0,5.843847656E-1,9.939664996E0
4.306566917E0,-2.890938263E0,-9.682465210E0,2.195933533E-1,1.010721909E1
4.316576917E0,-2.889740753E0,-9.701325989E0,1.920506287E-1,1.012438694E1
4.326587917E0,-2.796334991E0,-9.602082367E0,4.677772522E-1,1.001190745E1
4.336598917E0,-2.637515259E0,-9.206604767E0,6.560856628E-1,9.599401360E0
4.346608917E0,-2.244582367E0,-8.592881012E0,-8.607101440E-2,8.881619352E0
4.356619917E0,-1.763782196E0,-8.404273224E0,-1.384920044E0,8.698318204E0
4.366629917E0,-1.272952881E0,-8.353977814E0,-1.972597961E0,8.677585901E0
4.376640917E0,-8.900491333E-1,-8.324638824E0,-1.669478302E0,8.536917290E0
4.386650917E0,-7.090754700E-1,-8.507708130E0,-1.130299530E0,8.611704981E0
4.396661917E0,-8.937913513E-1,-8.762478333E0,-4.727169800E-1,8.820620775E0
4.406671917E0,-1.398691406E0,-8.790619812E0,1.136137390E-1,8.901923523E0
4.416682917E0,-1.875150604E0,-8.728798370E0,5.436694336E-1,8.944478030E0
4.426692917E0,-2.190095673E0,-8.763226776E0,9.092092896E-1,9.078398764E0
4.436703917E0,-2.400258636E0,-8.950038300E0,1.191821594E0,9.342636983E0
4.446714917E0,-2.504142609E0,-9.200168152E0,1.121916962E0,9.600652160E0
4.456724917E0,-2.360591125E0,-9.404493256E0,5.243595886E-1,9.710398387E0
4.466735917E0,-2.178419952E0,-9.318272552E0,3.150947571E-1,9.574706343E0
4.476745917E0,-1.895358582E0,-9.098080444E0,3.115022278E-1,9.298628155E0
4.486756917E0,-1.641785889E0,-8.837023315E0,2.838098145E-1,8.992718721E0
4.496766917E0,-1.543889465E0,-8.746611328E0,2.652484131E-1,8.885784216E0
4.506777917E0,-1.383872223E0,-8.973539429E0,2.441423035E-1,9.082902492E0
4.516787917E0,-1.322799225E0,-9.711055756E0,1.550775146E-1,9.801961575E0
4.526798917E0,-1.416204987E0,-1.033675461E1,-2.395019531E-2,1.043334587E1
4.536808917E0,-1.272204437E0,-1.074330917E1,-3.375480652E-1,1.082363778E1
4.546819917E0,-8.063731384E-1,-1.114612152E1,-1.048719177E0,1.122435185E1
4.556830917E0,-5.104385376E-2,-1.145283371E1,-2.419269104E0,1.170567676E1
4.566840917E0,5.023553467E-1,-1.150747009E1,-3.007096710E0,1.190448905E1
4.576851917E0,6.391708374E-1,-1.136302048E1,-2.019151154E0,1.155870863E1
4.586861917E0,6.688092041E-1,-1.134206406E1,-6.149212646E-1,1.137839404E1
4.596872917E0,8.893006897E-1,-1.166224823E1,1.072968750E0,1.174521824E1
4.606882917E0,1.092278595E0,-1.223031693E1,2.241887970E0,1.248197846E1
4.616893917E0,1.214873657E0,-1.293849426E1,2.281256104E0,1.319411540E1
4.626903917E0,1.126407623E0,-1.371837250E1,1.867815857E0,1.389069020E1
4.636914917E0,1.128652954E0,-1.424976746E1,1.076411591E0,1.433486630E1
4.646924917E0,1.129401398E0,-1.452609283E1,-2.050885162E0,1.471356689E1
4.656935917E0,1.350341949E0,-1.455603058E1,-6.375092926E0,1.594814282E1
4.666946917E0,1.612596588E0,-1.416938461E1,-8.724607086E0,1.671797526E1
4.676956917E0,1.117725677E0,-1.345192657E1,-8.227191467E0,1.580791949E1
4.686967917E0,1.401086426E-1,-1.269105881E1,-5.115013275E0,1.368378474E1
4.696977917E0,-4.646337891E-1,-1.220696548E1,-1.800605621E0,1.234779622E1
4.706988917E0,-5.990542603E-1,-1.203781723E1,8.367599487E-2,1.205300425E1
4.716998917E0,-1.023870850E0,-1.209963867E1,8.416996765E-1,1.217201815E1
4.727009917E0,-1.678609314E0,-1.270827301E1,1.145268402E0,1.286971530E1
4.737019917E0,-2.633623352E0,-1.372421036E1,1.580413513E0,1.406369897E1
4.747030917E0,-3.747157745E0,-1.475586502E1,2.070644073E0,1.536438448E1
4.757040917E0,-4.714745636E0,-1.551778061E1,2.117496643E0,1.635585930E1
4.767051917E0,-5.331912231E0,-1.570713684E1,2.125130768E0,1.672302654E1
4.777062917E0,-5.582042084E0,-1.523920990E1,2.309696960E0,1.639290738E1
4.787072917E0,-5.454058228E0,-1.438972641E1,2.406395874E0,1.557567714E1
4.797083917E0,-5.182073822E0,-1.348755249E1,2.273172913E0,1.462652646E1
4.807093917E0,-5.041815491E0,-1.268447250E1,2.097737732E0,1.381000542E1
4.817104917E0,-5.068609772E0,-1.192794571E1,2.146835632E0,1.313680315E1
4.827114917E0,-5.197192383E0,-1.114103210E1,1.917662201E0,1.244230016E1
4.837125917E0,-5.389692078E0,-1.010563522E1,9.101074219E-1,1.148916618E1
4.847135917E0,-5.524711304E0,-8.818312225E0,-9.852511597E-1,1.045254923E1
4.857146917E0,-5.248086548E0,-7.611072693E0,-2.305954742E0,9.528287738E0
4.867156917E0,-4.520150299E0,-6.860084381E0,-2.135908356E0,8.488499334E0
4.877167917E0,-3.772305450E0,-6.564299469E0,-1.187779999E0,7.663624290E0
4.887178917E0,-3.222648468E0,-6.611451416E0,1.941462708E-1,7.357611416E0
4.897188917E0,-3.048111420E0,-6.866071930E0,1.377734985E0,7.637544151E0
4.907199917E0,-2.944526825E0,-6.985972595E0,2.329306183E0,7.930934284E0
4.917209917E0,-2.793191528E0,-6.827901306E0,2.880010986E0,7.919382453E0
4.927220917E0,-2.550546112E0,-6.584507446E0,2.860252075E0,7.618534355E0
4.937230917E0,-2.367776184E0,-6.242468719E0,2.392325134E0,7.092108242E0
4.947241917E0,-1.985471191E0,-5.896987152E0,1.810485077E0,6.480309371E0
4.957251917E0,-1.288819885E0,-5.708079987E0,1.505269775E0,6.042273655E0
4.967262917E0,-8.925938416E-1,-5.578748932E0,1.607357483E0,5.873905131E0
4.977272917E0,-1.366059265E0,-5.315147095E0,2.075284424E0,5.867172402E0
4.987283917E0,-2.630330200E0,-4.839885406E0,2.510579224E0,6.053605186E0
4.997293917E0,-2.957549744E0,-4.499044189E0,2.586321716E0,5.973069489E0
5.007304917E0,-2.859353943E0,-4.043691101E0,2.450703735E0,5.525693756E0
5.017315917E0,-2.702929230E0,-3.662733307E0,2.367776184E0,5.131062829E0
5.027325917E0,-2.592309265E0,-3.430865479E0,2.174827423E0,4.818794411E0
5.037336917E0,-2.531685333E0,-3.350482635E0,1.849254456E0,4.588562581E0
5.047346917E0,-2.693049774E0,-3.470383301E0,1.235979767E0,4.563301801E0
5.057357917E0,-2.824027405E0,-3.814517670E0,3.564088440E-1,4.759485592E0
5.067367917E0,-2.961441650E0,-4.461921387E0,-4.474195862E-1,5.373924394E0
5.077378917E0,-3.309018860E0,-5.749394073E0,-1.648821259E0,6.835477274E0
5.087388917E0,-3.447031860E0,-7.834258575E0,-3.752247162E0,9.345426413E0
5.097399917E0,-2.352957001E0,-1.059541672E1,-8.583750000E0,1.383763080E1
5.107409917E0,1.297801208E0,-1.470003113E1,-2.008238846E1,2.492142711E1
5.117420917E0,4.211342468E0,-1.763348099E1,-2.025288391E1,2.718187565E1
5.127431917E0,4.191583557E0,-1.843880630E1,-1.069226532E1,2.172287937E1
5.137441917E0,4.882846069E0,-1.897094971E1,-5.654341736E0,2.038898475E1
5.147452917E0,5.735772400E0,-1.854523499E1,-2.909948730E0,1.962887229E1
5.157462917E0,6.135141907E0,-1.675855042E1,-1.735341339E0,1.793043189E1
5.167473917E0,5.786516876E0,-1.397718430E1,-1.674867096E0,1.522007353E1
5.177483917E0,3.262765045E0,-1.023047562E1,-2.135010223E0,1.094835767E1
5.187494917E0,-1.688339081E0,-9.020841064E0,-3.289709015E0,9.749269089E0
5.197504917E0,-5.553900604E0,-1.267968246E1,-3.740421753E0,1.433913924E1
5.207515917E0,-7.120243378E0,-1.732078125E1,-1.910327454E0,1.882436400E1
5.217525917E0,-7.116650848E0,-2.031605255E1,-1.346300354E0,2.156852418E1
5.227536917E0,-3.158731384E0,-2.103066650E1,-2.907853088E0,2.146443866E1
5.237546833E0,1.234482880E0,-1.571507034E1,-5.499862976E0,1.669538489E1
5.247557833E0,-1.579964447E0,-8.623267822E0,-1.136885834E0,8.840223130E0
5.257568833E0,-4.572391663E0,-4.961582336E0,4.519701233E0,8.121069143E0
5.267578833E0,-3.762575684E0,-3.030298462E0,6.151008911E0,7.821419000E0
5.277589833E0,-3.184926910E0,-1.767524414E0,5.602848816E0,6.682800074E0
5.287599833E0,-3.500470734E0,-6.271957397E-1,6.571634216E0,7.472151372E0
5.297610833E0,-5.055586853E0,-2.139650574E0,6.151308289E0,8.244735088E0
5.307620834E0,-6.606811066E0,-4.899611206E0,4.877307587E0,9.562649827E0
5.317631833E0,-7.748337250E0,-6.829697571E0,4.159400482E0,1.113472548E1
5.327641834E0,-8.466094666E0,-8.724307709E0,3.662882996E0,1.269665372E1
5.337652833E0,-8.773405609E0,-1.067325485E1,3.022664337E0,1.414310839E1
5.347662834E0,-8.262368317E0,-1.184516785E1,2.247875519E0,1.461600752E1
5.357673834E0,-7.008276215E0,-1.211715225E1,1.501377869E0,1.407819057E1
5.367683833E0,-5.351671143E0,-1.180071030E1,9.862989807E-1,1.299499647E1
5.377694834E0,-4.123924255E0,-1.108340195E1,5.947132874E-1,1.184070242E1
5.387705833E0,-3.365900574E0,-1.041114990E1,2.824626160E-1,1.094536953E1
5.397715834E0,-3.093167725E0,-9.777816925E0,5.733078003E-2,1.025556811E1
5.407726834E0,-3.305126953E0,-9.265731812E0,1.541793823E-2,9.837575306E0
5.417736833E0,-3.662134552E0,-8.943751373E0,4.327500916E-1,9.674150647E0
5.427747834E0,-3.677402802E0,-8.928034058E0,7.526348877E-1,9.685016405E0
5.437757833E0,-3.495830383E0,-9.179062042E0,6.230044556E-1,9.841958372E0
5.447768833E0,-3.314557343E0,-9.530830536E0,3.990701294E-1,1.009862753E1
5.457778833E0,-3.165317688E0,-9.676926727E0,3.544628906E-1,1.018762931E1
5.467789833E0,-2.891387329E0,-9.506431274E0,4.367916870E-1,9.946011424E0
5.477799833E0,-2.368973694E0,-9.082961884E0,2.368075562E-1,9.389798228E0
5.487810833E0,-1.447789307E0,-8.678652649E0,-1.272054749E0,8.890063496E0
5.497820833E0,-4.391867065E-1,-8.486452332E0,-2.629432068E0,8.895317371E0
5.507831833E0,1.125659180E-1,-8.232879639E0,-2.626887360E0,8.642541029E0
5.517842833E0,4.059558105E-1,-8.208330688E0,-1.898801422E0,8.434864531E0
5.527852833E0,1.445993042E-1,-8.362659760E0,-9.461824036E-1,8.417258957E0
5.537863833E0,-5.798941040E-1,-8.747659149E0,4.340972900E-3,8.766860134E0
5.547873833E0,-1.240171051E0,-9.037755890E0,7.363188171E-1,9.152115666E0
5.557884833E0,-1.808239746E0,-9.289532318E0,1.687590637E0,9.613173452E0
5.567894834E0,-2.135459290E0,-9.701775055E0,1.435365143E0,1.003717583E1
5.577905833E0,-2.178569641E0,-1.004201752E1,7.881111145E-1,1.030579452E1
5.587915834E0,-2.184108124E0,-1.017703674E1,7.870632935E-1,1.043848044E1
5.597926833E0,-2.160157928E0,-1.014200958E1,6.385720825E-1,1.038914890E1
5.607936834E0,-1.994302826E0,-9.978699188E0,3.980223083E-1,1.018381574E1
5.617947834E0,-1.778451691E0,-9.702972565E0,1.743873596E-1,9.866153149E0
5.627957833E0,-1.418899384E0,-9.395212555E0,-1.451980591E-1,9.502861511E0
5.637968834E0,-1.301393738E0,-9.448202362E0,-3.900888062E-1,9.545382277E0
5.647979833E0,-1.643282776E0,-9.783654785E0,-3.565585327E-1,9.927104977E0
5.657989834E0,-2.124232635E0,-9.956844635E0,-3.174897766E-1,1.018586860E1
5.668000834E0,-2.251767426E0,-1.000564316E1,-1.047222290E0,1.030922044E1
5.678010833E0,-1.398541718E0,-1.043674667E1,-2.865640869E0,1.091299673E1
5.688021834E0,-4.161346436E-2,-1.111408813E1,-3.627257080E0,1.169109408E1
5.698031833E0,5.987548828E-1,-1.113908615E1,-1.930984497E0,1.132106218E1
5.708042833E0,1.078507233E0,-1.115031281E1,3.103047180E-1,1.120664725E1
5.718052833E0,1.395398254E0,-1.158381134E1,1.942211151E0,1.182810237E1
5.728063833E0,1.622176666E0,-1.214394653E1,3.217259674E0,1.266718810E1
5.738073833E0,1.867366791E0,-1.260049713E1,3.325783997E0,1.316512157E1
5.748084833E0,2.132914581E0,-1.290137146E1,2.540666656E0,1.332102463E1
5.758094833E0,1.904639282E0,-1.295151718E1,1.360670471E-1,1.309152254E1
5.768105833E0,9.575587463E-1,-1.304402481E1,-6.637646942E0,1.466703307E1
5.778116833E0,4.073030090E-1,-1.363409775E1,-1.335702393E1,1.909095611E1
5.788126833E0,1.317111053E0,-1.413974625E1,-1.136361923E1,1.818788189E1
5.798137833E0,2.398013306E0,-1.402134247E1,-5.018314362E0,1.508416360E1
5.808147833E0,2.297871552E0,-1.341704910E1,-4.450245667E-1,1.361967207E1
5.818158833E0,1.825903015E0,-1.279823593E1,1.501826935E0,1.301477041E1
5.828168834E0,1.203647003E0,-1.246218475E1,1.525178375E0,1.261273103E1
5.838179833E0,4.528083801E-1,-1.244646744E1,1.222956848E0,1.251459990E1
5.848189834E0,-2.980302429E-1,-1.275602371E1,1.354533234E0,1.283120116E1
5.858200833E0,-1.063538361E0,-1.345013031E1,1.629361725E0,1.359014124E1
5.868210834E0,-1.878892822E0,-1.452654190E1,1.817520447E0,1.475987935E1
5.878221834E0,-2.837200012E0,-1.563857941E1,2.084714813E0,1.603000018E1
5.888231833E0,-3.941004639E0,-1.637729324E1,2.242786102E0,1.699344995E1
5.898242834E0,-4.915777588E0,-1.655886566E1,2.405647430E0,1.743984062E1
5.908253833E0,-5.484145660E0,-1.627715149E1,2.360291748E0,1.733760339E1
5.918263834E0,-5.736071777E0,-1.531210831E1,2.378553772E0,1.652333799E1
5.928274834E0,-5.465135193E0,-1.390518402E1,2.127825165E0,1.509137122E1
5.938284833E0,-5.070705414E0,-1.241697876E1,1.822011108E0,1.353562482E1
5.948295834E0,-4.888534241E0,-1.107217529E1,1.514101410E0,1.219767748E1
5.958305833E0,-5.106780396E0,-9.830357666E0,3.733236694E-1,1.108397530E1
5.968316833E0,-5.582491150E0,-8.616082764E0,-1.896705780E0,1.044023862E1
5.978326833E0,-5.559439087E0,-7.778274994E0,-3.210074615E0,1.008531129E1
5.988337833E0,-4.783901825E0,-7.422165527E0,-2.706372070E0,9.235729942E0
5.998347833E0,-4.212989044E0,-7.293882294E0,-1.461261292E0,8.548992933E0
6.008358833E0,-4.071383514E0,-7.157665558E0,3.932322693E-1,8.243965768E0
6.018368833E0,-3.991898804E0,-7.241491241E0,2.542313232E0,8.650884812E0
6.028379833E0,-3.657943268E0,-7.283553772E0,3.880979462E0,9.027331061E0
6.038390833E0,-3.158731384E0,-7.055877228E0,3.944746857E0,8.678940902E0
6.048400833E0,-2.900518341E0,-6.735992432E0,3.238515472E0,8.017143079E0
6.058411833E0,-2.547252960E0,-6.367009735E0,2.464325409E0,7.286989113E0
6.068421833E0,-1.893262939E0,-6.002368011E0,1.577270050E0,6.488501145E0
6.078432833E0,-1.066681824E0,-5.650000763E0,8.662486267E-1,5.814697363E0
6.088442834E0,-6.357279968E-1,-5.352120209E0,8.756790161E-1,5.460417068E0
6.098453833E0,-9.946815491E-1,-4.939877472E0,1.598974915E0,5.286634241E0
6.108463834E0,-2.285447388E0,-4.365222473E0,2.361040192E0,5.463785116E0
6.118474833E0,-2.918031921E0,-4.121828613E0,2.909349976E0,5.828267212E0
6.128484834E0,-2.861150208E0,-3.879033508E0,3.093916168E0,5.727599735E0
6.138495834E0,-2.860102386E0,-3.643124084E0,3.058889008E0,5.550616247E0
6.148505833E0,-2.695893860E0,-3.404071198E0,2.901117096E0,5.222262424E0
6.158516834E0,-2.587519226E0,-3.160976715E0,2.492167511E0,4.785177995E0
6.168526833E0,-2.569855957E0,-2.916085968E0,1.863325195E0,4.310417358E0
6.178537834E0,-2.580483856E0,-2.922821960E0,1.360520782E0,4.129503838E0
6.188548834E0,-2.894081726E0,-3.239862671E0,4.933740234E-1,4.372166178E0
6.198558833E0,-3.270848236E0,-4.064198456E0,-7.325765991E-1,5.268095077E0
6.208569834E0,-3.913012848E0,-5.771847382E0,-2.555485840E0,7.426735462E0
6.218579833E0,-4.002826080E0,-8.604706421E0,-5.704936523E0,1.107293502E1
6.228590833E0,-2.011067963E0,-1.306243652E1,-1.581057175E1,2.060693624E1
6.238601792E0,2.258353729E0,-1.858774658E1,-2.598985382E1,3.203243647E1
6.248612792E0,2.913541260E0,-2.085148911E1,-1.583048035E1,2.634155327E1
6.258622792E0,3.544329529E0,-2.153212372E1,-7.451055450E0,2.305889960E1
6.268633792E0,5.450914764E0,-2.122900406E1,-3.463946686E0,2.218968255E1
6.278643792E0,7.109765167E0,-1.936567886E1,-1.565294952E0,2.068884789E1
6.288654792E0,7.130272522E0,-1.598915039E1,-1.698966980E0,1.758920707E1
6.298664792E0,4.652325439E0,-1.182121765E1,-2.454445953E0,1.293868709E1
6.308675792E0,-1.790277100E-1,-9.859247589E0,-3.306474152E0,1.040046082E1
6.318686792E0,-4.822371826E0,-1.333771408E1,-3.361858978E0,1.457573266E1
6.328696792E0,-5.928870850E0,-1.829660202E1,-3.122506714E-1,1.923576501E1
6.338707792E0,-4.618495789E0,-2.079670303E1,1.277593231E0,2.134164016E1
6.348717792E0,-3.326083374E-1,-1.926314209E1,-8.566685486E-1,1.928504997E1
6.358728792E0,1.232387238E0,-1.263013550E1,-3.500919800E0,1.316417641E1
6.368738792E0,-1.575324097E0,-6.605463867E0,-1.244062958E0,6.903730264E0
6.378749792E0,-4.086951141E0,-3.601510620E0,2.991229706E0,6.214620144E0
6.388759792E0,-3.489842834E0,-2.187101898E0,4.091741180E0,5.805580385E0
6.398770792E0,-3.298390961E0,-9.816586304E-1,4.202361145E0,5.431654977E0
6.408780792E0,-4.351002045E0,4.580474854E-2,4.822820892E0,6.495607610E0
6.418791792E0,-6.767876129E0,-2.644101562E0,4.554878082E0,8.575682755E0
6.428801792E0,-8.534203033E0,-5.667364655E0,4.243375854E0,1.108863753E1
6.438812792E0,-9.452842712E0,-7.636519775E0,4.165837097E0,1.284627839E1
6.448822792E0,-9.999505920E0,-9.419162750E0,4.066443787E0,1.432643398E1
6.458833792E0,-9.764943695E0,-1.077279785E1,3.495231628E0,1.495406109E1
6.468844792E0,-8.337512054E0,-1.132425110E1,2.528841248E0,1.428803024E1
6.478854792E0,-6.595734100E0,-1.129057114E1,1.644629974E0,1.317897996E1
6.488865792E0,-5.198539581E0,-1.097951797E1,1.049916687E0,1.219331595E1
6.498875792E0,-4.033961334E0,-1.053254745E1,7.134164429E-1,1.130116644E1
6.508886792E0,-3.469485168E0,-1.019185593E1,3.743714905E-1,1.077271593E1
6.518896792E0,-3.599414978E0,-9.904303894E0,3.394940186E-1,1.054354210E1
6.528907792E0,-3.932622070E0,-9.654623108E0,4.861889648E-1,1.043616996E1
6.538917792E0,-4.262086945E0,-9.599837036E0,9.469308472E-1,1.054603880E1
6.548928792E0,-4.129462738E0,-9.518106995E0,1.609752502E0,1.049943457E1
6.558938792E0,-3.546574860E0,-9.463919678E0,1.431922302E0,1.020756437E1
6.568949792E0,-3.124003601E0,-9.680818634E0,9.774673462E-1,1.021925097E1
6.578959792E0,-2.788401489E0,-9.713899841E0,7.066804504E-1,1.013086523E1
6.588970792E0,-2.476300507E0,-9.468709717E0,7.143145752E-1,9.813193833E0
6.598980792E0,-2.122885437E0,-9.097481689E0,1.057550812E0,9.401554626E0
6.608991792E0,-1.830543365E0,-8.699010315E0,1.692530365E0,9.049217011E0
6.619002792E0,-1.572480011E0,-8.439899139E0,2.250569916E0,8.875227085E0
6.629012792E0,-1.063688049E0,-8.590635681E0,1.919308777E0,8.866464902E0
6.639023792E0,-3.812571716E-1,-8.990154877E0,1.019380188E0,9.055792495E0
6.649033792E0,1.812730408E-1,-9.369466095E0,2.133064270E-1,9.373646806E0
6.659044792E0,4.596940613E-1,-9.680070190E0,2.529739380E-2,9.691012201E0
6.669054792E0,5.394781494E-1,-9.810898132E0,1.877096558E-1,9.827512084E0
6.679065792E0,4.236190796E-1,-9.909992065E0,5.469625854E-1,9.934111129E0
6.689075792E0,2.878514099E-1,-1.002315674E1,8.027806091E-1,1.005937305E1
6.699086792E0,7.783813477E-2,-1.017299515E1,9.184899902E-1,1.021467145E1
6.709096792E0,-7.514373779E-2,-1.027388535E1,4.198768616E-1,1.028273618E1
6.719107792E0,-1.332229614E-2,-1.023736130E1,-4.658312988E-1,1.024796285E1
6.729117792E0,3.203338623E-2,-1.008527756E1,-1.400637360E0,1.018212328E1
6.739128792E0,5.164260864E-2,-9.821226654E0,-2.852617950E0,1.022724739E1
6.749138792E0,-2.492317200E-1,-9.598040771E0,-4.974605255E0,1.081347310E1
6.759149792E0,-8.216413879E-1,-1.000699036E1,-6.351442108E0,1.188089927E1
6.769160792E0,-1.198407898E0,-1.067145859E1,-5.621559906E0,1.212097957E1
6.779170792E0,-1.032552795E0,-1.091051147E1,-3.301085358E0,1.144563631E1
6.789181792E0,-7.186555481E-1,-1.080258591E1,-9.997709656E-1,1.087252823E1
6.799191792E0,-1.984872437E-1,-1.091155930E1,7.849676514E-1,1.094155828E1
6.809202792E0,5.625302124E-1,-1.110899872E1,2.309247894E0,1.136041014E1
6.819212792E0,1.192869415E0,-1.131062943E1,3.506907349E0,1.190175090E1
6.829223792E0,1.579066315E0,-1.146076721E1,4.682113495E0,1.248057780E1
6.839233792E0,2.104473724E0,-1.162153290E1,5.138813782E0,1.288007157E1
6.849244792E0,2.801274719E0,-1.189142166E1,4.506678314E0,1.302164347E1
6.859254792E0,2.705623627E0,-1.242521164E1,3.772904205E0,1.326427871E1
6.869265792E0,1.774260406E0,-1.296693512E1,1.388512573E0,1.316120715E1
6.879275792E0,3.367996216E-2,-1.328547272E1,-6.291117554E0,1.469976461E1
6.889286792E0,-8.791218567E-1,-1.383438126E1,-1.487935822E1,2.033613191E1
6.899296792E0,3.496728516E-1,-1.430694855E1,-1.398137558E1,2.000724646E1
6.909307792E0,2.239043884E0,-1.436188431E1,-6.014492798E0,1.573058047E1
6.919318792E0,2.612068176E0,-1.361673386E1,3.700305176E-1,1.386994101E1
6.929328792E0,2.381397858E0,-1.242146942E1,2.287692719E0,1.285291781E1
6.939339792E0,1.920356598E0,-1.135538635E1,1.331331482E0,1.159331757E1
6.949349792E0,1.463506622E0,-1.132679581E1,6.451583862E-1,1.143916012E1
6.959360792E0,8.684939575E-1,-1.180490158E1,8.397537231E-1,1.186655676E1
6.969370792E0,2.246827698E-1,-1.260393997E1,1.006656647E0,1.264607223E1
6.979381792E0,-5.769003296E-1,-1.407867325E1,1.350940704E0,1.415510138E1
6.989391792E0,-1.786834259E0,-1.589993591E1,1.859732666E0,1.610774175E1
6.999402792E0,-3.219055939E0,-1.741882736E1,2.186503143E0,1.784821178E1
7.009412792E0,-4.702471161E0,-1.820873474E1,2.504741364E0,1.897221614E1
7.019423792E0,-5.970334625E0,-1.829375793E1,2.570903778E0,1.941432515E1
7.029433792E0,-6.684948578E0,-1.770578064E1,2.394271088E0,1.907657568E1
7.039444792E0,-6.900200958E0,-1.637130569E1,2.076332245E0,1.788696674E1
7.049454792E0,-6.505621490E0,-1.450783081E1,1.616338806E0,1.598164000E1
7.059465792E0,-6.049819336E0,-1.263732056E1,1.017733612E0,1.404770325E1
7.069476792E0,-6.140381012E0,-1.072774155E1,-8.493338013E-1,1.238991871E1
7.079486792E0,-6.294111328E0,-9.077872467E0,-3.275338898E0,1.152178158E1
7.089497792E0,-5.808521118E0,-8.105344849E0,-3.921844482E0,1.071524133E1
7.099507792E0,-4.665498047E0,-7.640711060E0,-2.442321167E0,9.279669725E0
7.109518792E0,-4.113146667E0,-7.348818054E0,-5.185217285E-1,8.437533235E0
7.119528792E0,-4.293521576E0,-7.061565399E0,1.540746002E0,8.406778911E0
7.129539792E0,-4.534969482E0,-6.900500336E0,3.922143860E0,9.141447672E0
7.139549792E0,-4.223167877E0,-6.846462708E0,5.015769653E0,9.479828255E0
7.149560792E0,-3.716471558E0,-6.624025269E0,4.810396729E0,8.990538820E0
7.159570792E0,-3.168311462E0,-6.260131989E0,4.306993561E0,8.232717873E0
7.169581792E0,-2.560575256E0,-5.826783142E0,3.754342804E0,7.389386803E0
7.179591792E0,-1.626817017E0,-5.421725464E0,2.770738220E0,6.302271884E0
7.189602792E0,-5.909710693E-1,-5.133574677E0,1.301842804E0,5.328942714E0
7.199612792E0,4.849914551E-2,-4.983885956E0,7.846682739E-1,5.045510449E0
7.209623792E0,-1.703457642E-1,-4.893324280E0,1.387315063E0,5.089035593E0
7.219633792E0,-1.573378143E0,-4.623884583E0,2.192341003E0,5.353707733E0
7.229644792E0,-2.985092468E0,-4.283342743E0,2.717898102E0,5.885980988E0
7.239655292E0,-3.347039795E0,-4.074077911E0,2.861449585E0,5.999056588E0
7.249665292E0,-3.385958862E0,-3.725003815E0,2.959495697E0,5.839433673E0
7.259676292E0,-3.123554535E0,-3.438798981E0,3.285966797E0,5.690299566E0
7.269686292E0,-2.918031921E0,-3.290307770E0,3.390150146E0,5.552850937E0
7.279697292E0,-2.943179626E0,-3.121458893E0,2.981799316E0,5.224647270E0
7.289707292E0,-2.883304138E0,-2.977009277E0,2.060315552E0,4.628274750E0
7.299718292E0,-3.078647919E0,-3.128793640E0,5.743556213E-1,4.426884574E0
7.309728292E0,-3.399879913E0,-3.668571167E0,-1.133293304E0,5.128542829E0
7.319739292E0,-3.816763000E0,-4.888234863E0,-3.310366058E0,7.030010194E0
7.329749292E0,-3.657943268E0,-7.483687592E0,-7.292086029E0,1.107071125E1
7.339760292E0,-1.053060150E0,-1.216295700E1,-1.854149277E1,2.219985164E1
7.349770292E0,3.092568970E0,-1.759860352E1,-2.687750793E1,3.227499437E1
7.359781292E0,3.532204742E0,-1.982058289E1,-1.477203140E1,2.497088080E1
7.369791292E0,3.808230743E0,-2.071901459E1,-6.130800934E0,2.194007536E1
7.379802292E0,5.212011566E0,-2.112541946E1,-3.061882782E0,2.197324597E1
7.389812292E0,6.279292145E0,-1.961206650E1,-2.045047302E0,2.069407840E1
7.399823292E0,6.733747101E0,-1.648941010E1,-1.634151764E0,1.788615239E1
7.409834292E0,4.908891907E0,-1.202449493E1,-2.561024323E0,1.323799621E1
7.419844292E0,7.444020081E-1,-8.459957428E0,-3.467988281E0,9.173437565E0
7.429855292E0,-3.012485504E0,-8.405171356E0,-3.362008667E0,9.540706301E0
7.439865292E0,-5.164410553E0,-1.181103882E1,-1.014141083E0,1.293059382E1
7.449876292E0,-5.837710419E0,-1.524774216E1,2.559976501E0,1.652652364E1
7.459886292E0,-4.223766632E0,-1.713651443E1,3.251837769E0,1.794644200E1
7.469897292E0,-1.547182617E0,-1.738335114E1,3.957769775E-1,1.745655493E1
7.479907292E0,-4.770579529E-1,-1.334474945E1,-3.646417236E0,1.384219205E1
7.489918292E0,-2.858605499E0,-8.024363251E0,-2.083367615E0,8.769404290E0
7.499928292E0,-5.083728333E0,-4.450844421E0,6.023474121E-1,6.783592870E0
7.509939292E0,-4.910837860E0,-2.920277252E0,1.534608765E0,5.916026688E0
7.519949292E0,-5.079087982E0,-2.483186188E0,2.217638397E0,6.072995014E0
7.529960292E0,-6.179599457E0,-3.417243805E0,4.305346985E0,8.270490755E0
7.539970292E0,-7.629933472E0,-5.741610260E0,5.431305542E0,1.098549285E1
7.549981292E0,-7.955506439E0,-7.518864441E0,5.147795105E0,1.209641268E1
7.559991292E0,-7.539671173E0,-8.825796661E0,4.334087219E0,1.239054640E1
7.570002292E0,-7.004084930E0,-9.825417938E0,3.306174774E0,1.251106850E1
7.580013292E0,-6.089037781E0,-1.045261368E1,2.422711945E0,1.233705990E1
7.590023292E0,-5.174140320E0,-1.081545914E1,1.776655426E0,1.212032957E1
7.600034292E0,-4.443659363E0,-1.073836945E1,1.190474396E0,1.168229071E1
7.610044292E0,-3.787573700E0,-1.021311172E1,7.548802185E-1,1.091893813E1
7.620055292E0,-3.432212677E0,-9.557175751E0,5.788462830E-1,1.017127107E1
7.630065292E0,-3.490890656E0,-8.893306274E0,6.923103333E-1,9.578961721E0
7.640076292E0,-3.602109375E0,-8.545579376E0,8.250842285E-1,9.310364268E0
7.650086292E0,-3.627406769E0,-8.518635406E0,6.759942627E-1,9.283436718E0
7.660097292E0,-3.569926300E0,-8.685538330E0,7.539820862E-1,9.420798207E0
7.670107292E0,-3.359314270E0,-8.868158569E0,1.017134857E0,9.537494015E0
7.680118292E0,-2.906206512E0,-9.123078461E0,6.996450806E-1,9.600317710E0
7.690128292E0,-2.500849457E0,-9.454788666E0,4.474195862E-1,9.790171654E0
7.700139292E0,-2.154170380E0,-9.595795441E0,6.851252747E-1,9.858455092E0
7.710149292E0,-1.980980530E0,-9.446256409E0,9.774673462E-1,9.701107484E0
7.720160292E0,-1.895807648E0,-9.240284729E0,1.262474670E0,9.516868750E0
7.730170292E0,-1.781894531E0,-9.027876434E0,1.673220520E0,9.352933654E0
7.740181292E0,-1.567989349E0,-9.052425385E0,1.619332581E0,9.328838832E0
7.750192292E0,-1.174607391E0,-9.242230682E0,1.214125214E0,9.395351539E0
7.760202292E0,-6.539900208E-1,-9.441017303E0,3.634442139E-1,9.470617845E0
7.770213292E0,-2.713856506E-1,-9.542506256E0,-4.842430115E-1,9.558638350E0
7.780223292E0,-4.430786133E-2,-9.391919403E0,-6.725514221E-1,9.416073421E0
7.790234292E0,1.856140137E-2,-9.034013672E0,-4.370910645E-1,9.044600386E0
7.800244292E0,-1.155596924E-1,-8.793763275E0,-3.391946411E-1,8.801061276E0
7.810255292E0,-3.321592712E-1,-8.918154602E0,-9.475296021E-2,8.924841142E0
7.820265292E0,-5.328918457E-1,-9.299561462E0,2.844085693E-3,9.314817508E0
7.830276292E0,-6.105802917E-1,-9.672735443E0,-4.694238281E-1,9.703348802E0
7.840286292E0,-7.092251587E-1,-9.972861328E0,-8.912466431E-1,1.003769316E1
7.850297292E0,-1.120719452E0,-1.026610153E1,-1.150058441E0,1.039093293E1
7.860307292E0,-1.859283600E0,-1.049587372E1,-1.125808868E0,1.071857016E1
7.870318292E0,-2.575544128E0,-1.049258057E1,-8.949888611E-1,1.084106450E1
7.880328292E0,-3.081192627E0,-1.029199768E1,-6.991960144E-1,1.076605031E1
7.890339292E0,-3.485651550E0,-1.036878799E1,-6.173162842E-1,1.095639588E1
7.900349292E0,-3.865262146E0,-1.063194077E1,-5.834866333E-1,1.132779204E1
7.910360292E0,-3.739972687E0,-1.099628311E1,-6.057902527E-1,1.163067581E1
7.920370292E0,-2.210752716E0,-1.172706345E1,-6.512956238E-1,1.195138614E1
7.930381292E0,-8.846603394E-2,-1.210622498E1,-7.559280396E-1,1.213012517E1
7.940392292E0,1.335073700E0,-1.232357300E1,-2.692900085E-1,1.239860437E1
7.950402292E0,2.176174622E0,-1.260858032E1,4.031117249E-1,1.280134887E1
7.960413292E0,2.671494598E0,-1.294463150E1,5.468128967E-1,1.322873283E1
7.970423292E0,2.844834137E0,-1.318997131E1,-2.754272461E-1,1.349608405E1
7.980434292E0,2.668949890E0,-1.324505676E1,-2.209555206E0,1.369076172E1
7.990444292E0,2.085762634E0,-1.306348434E1,-5.223687286E0,1.422293703E1
8.000455292E0,1.379830627E0,-1.300076477E1,-8.024962006E0,1.534026833E1
8.010465292E0,1.350192261E0,-1.343561050E1,-7.796686707E0,1.559252938E1
8.020476292E0,1.685195618E0,-1.382974091E1,-4.500690765E0,1.464096428E1
8.030486292E0,2.148781586E0,-1.317964279E1,-1.305734711E0,1.341734659E1
8.040497292E0,2.207609253E0,-1.221459961E1,8.042774963E-1,1.243852260E1
8.050507292E0,1.092128906E0,-1.183289337E1,1.823358307E0,1.202226046E1
8.060518292E0,-2.850073242E-1,-1.228225891E1,1.886526947E0,1.242956544E1
8.070528292E0,-1.345402222E0,-1.322215439E1,1.654359741E0,1.339299742E1
8.080539292E0,-2.163900146E0,-1.455662933E1,1.682501221E0,1.481245192E1
8.090549292E0,-2.749482422E0,-1.615186203E1,1.682800598E0,1.647040128E1
8.100560292E0,-3.525468750E0,-1.733769608E1,1.640887756E0,1.776843121E1
8.110570292E0,-4.555327148E0,-1.780577271E1,2.166744232E0,1.850652122E1
8.120581292E0,-5.341043243E0,-1.737826172E1,2.912493439E0,1.841231494E1
8.130592292E0,-5.600004730E0,-1.626427826E1,2.983894958E0,1.745824818E1
8.140602292E0,-5.446873169E0,-1.477307922E1,2.561772766E0,1.595227184E1
8.150613292E0,-5.040767670E0,-1.352287903E1,1.831591187E0,1.454758819E1
8.160623292E0,-4.938380585E0,-1.269839355E1,1.465003510E0,1.370339509E1
8.170634292E0,-5.067711639E0,-1.196192505E1,1.473685455E0,1.307444458E1
8.180644292E0,-5.185516663E0,-1.121033798E1,1.449286194E0,1.243630537E1
8.190655292E0,-5.402565308E0,-1.023481659E1,3.225791931E-1,1.157770443E1
8.200665292E0,-5.722001038E0,-9.059610443E0,-2.197430420E0,1.093830598E1
8.210676292E0,-5.390590210E0,-8.236771545E0,-3.447181549E0,1.043004933E1
8.220686292E0,-4.594246216E0,-7.810907135E0,-2.863245850E0,9.503449130E0
8.230697292E0,-4.011508026E0,-7.350464630E0,-1.096020813E0,8.445282029E0
8.240707042E0,-3.705095215E0,-6.952741699E0,1.235381012E0,7.974616852E0
8.250718042E0,-3.284918976E0,-6.770570526E0,3.021167450E0,8.109178176E0
8.260728042E0,-2.752925262E0,-6.434669037E0,3.913312225E0,8.018576912E0
8.270739042E0,-2.366578674E0,-5.952072601E0,4.268074493E0,7.697033374E0
8.280749042E0,-2.088007965E0,-5.466482391E0,4.184697876E0,7.194018579E0
8.290760042E0,-1.542691956E0,-4.935386810E0,3.372337189E0,6.173378293E0
8.300770042E0,-5.197192383E-1,-4.502786407E0,1.524878998E0,4.782305874E0
8.310781042E0,1.646575928E-1,-4.182901611E0,4.513114929E-1,4.210399040E0
8.320791042E0,-4.433779907E-1,-3.955823822E0,1.341360626E0,4.200520740E0
8.330802042E0,-1.816472626E0,-3.732787628E0,2.459984436E0,4.825432592E0
8.340813042E0,-3.003055115E0,-3.650159454E0,3.301534424E0,5.765599155E0
8.350823042E0,-3.237467651E0,-3.452420654E0,3.688180389E0,6.000256641E0
8.360834042E0,-3.159180450E0,-3.140918427E0,3.627706146E0,5.745088473E0
8.370844042E0,-2.926414490E0,-2.848127289E0,3.776197357E0,5.561959843E0
8.380855042E0,-2.614014130E0,-2.597548370E0,3.690126343E0,5.215108803E0
8.390865042E0,-2.467468872E0,-2.374661865E0,3.221600647E0,4.701715893E0
8.400876042E0,-2.434537354E0,-2.305655365E0,2.404300232E0,4.125976053E0
8.410886042E0,-2.529440002E0,-2.598895569E0,1.237027588E0,3.831783156E0
8.420897042E0,-2.960543518E0,-3.298540649E0,-2.835104370E-1,4.441347375E0
8.430907042E0,-3.535198517E0,-4.637506256E0,-2.239942017E0,6.246713781E0
8.440918042E0,-4.056414642E0,-7.118896179E0,-5.620512085E0,9.935961889E0
8.450928042E0,-2.775528259E0,-1.153097122E1,-1.455992249E1,1.877919586E1
8.460939042E0,2.077529755E0,-1.707559113E1,-2.645134415E1,3.155258388E1
8.470949042E0,3.630400543E0,-1.995171021E1,-1.690509567E1,2.640137890E1
8.480960042E0,3.154240723E0,-2.115850067E1,-6.157894592E0,2.226097597E1
8.490970042E0,4.349954224E0,-2.144919617E1,-2.830613708E0,2.206813295E1
8.500981042E0,6.154152374E0,-1.993359787E1,-2.037862244E0,2.096126900E1
8.510991042E0,7.252268829E0,-1.659823380E1,-1.938468933E0,1.821687213E1
8.521002042E0,6.135590973E0,-1.267354523E1,-3.545527039E0,1.452015796E1
8.531012042E0,1.552870789E0,-9.993817749E0,-5.579347687E0,1.155062429E1
8.541023042E0,-2.915636902E0,-1.102442459E1,-5.305417328E0,1.257721468E1
8.551034042E0,-5.338049469E0,-1.550460800E1,-2.093247070E0,1.653085977E1
8.561044042E0,-5.247787170E0,-1.882410507E1,1.337169342E0,1.958760383E1
8.571055042E0,-3.288511505E0,-2.088292374E1,5.728587341E-1,2.114802541E1
8.581065042E0,1.732197876E0,-2.042906754E1,-3.666475525E0,2.082763435E1
8.591076042E0,2.594105530E0,-1.346420105E1,-4.072431335E0,1.430380335E1
8.601086042E0,-2.186054077E0,-6.799759827E0,2.088606720E0,7.441629133E0
8.611097042E0,-4.692741394E0,-3.595223694E0,5.482798462E0,8.062786998E0
8.621107042E0,-4.018842773E0,-1.982178040E0,5.129832458E0,6.811410138E0
8.631118042E0,-3.602708130E0,-2.826123047E-1,3.859424286E0,5.287204498E0
8.641128042E0,-4.405339050E0,2.639012146E-1,4.383933563E0,6.220573083E0
8.651139042E0,-6.742129669E0,-2.781515808E0,5.053640900E0,8.873129606E0
8.661149042E0,-7.727081451E0,-5.313500519E0,4.910987549E0,1.058578642E1
8.671160042E0,-7.983797607E0,-6.712491302E0,4.600982208E0,1.140033337E1
8.681170042E0,-8.117918701E0,-8.261320496E0,3.877536621E0,1.221414388E1
8.691181042E0,-7.836354218E0,-9.604028320E0,2.942580872E0,1.273988185E1
8.701191042E0,-7.067552948E0,-1.063253952E1,2.064357147E0,1.293301093E1
8.711202042E0,-6.091432800E0,-1.125988495E1,1.302740936E0,1.286808830E1
8.721212042E0,-5.169649658E0,-1.134086655E1,6.987469482E-1,1.248313979E1
8.731223042E0,-4.465813293E0,-1.108310257E1,3.112028503E-1,1.195305393E1
8.741233042E0,-4.032913513E0,-1.081036972E1,8.068222046E-2,1.153841386E1
8.751244042E0,-3.869752808E0,-1.066247726E1,7.274871826E-2,1.134322267E1
8.761254042E0,-3.822750549E0,-1.051997360E1,1.670526123E-1,1.119424731E1
8.771265042E0,-3.798351288E0,-1.029618896E1,4.947212219E-1,1.098561463E1
8.781276042E0,-3.505260773E0,-1.004096970E1,8.165519714E-1,1.066652158E1
8.791286042E0,-2.915487213E0,-9.897567902E0,6.020480347E-1,1.033558793E1
8.801297042E0,-2.352957001E0,-9.851463776E0,4.614903259E-1,1.013906892E1
8.811307042E0,-1.823807373E0,-9.587712250E0,5.210664368E-1,9.773536195E0
8.821318042E0,-1.444496155E0,-9.291029205E0,6.477030945E-1,9.424930352E0
8.831328042E0,-7.789801025E-1,-9.140292664E0,1.678010559E-1,9.174961426E0
8.841339042E0,-1.187031555E-1,-9.188941498E0,-1.102906494E0,9.255654435E0
8.851349042E0,3.147953796E-1,-9.194330292E0,-1.980830841E0,9.410552400E0
8.861360042E0,6.544390869E-1,-9.001531219E0,-2.060614929E0,9.257536859E0
8.871370042E0,5.586383057E-1,-8.925040283E0,-1.318308563E0,9.039156945E0
8.881381042E0,2.784210205E-1,-8.755442963E0,-5.450166321E-1,8.776807100E0
8.891391042E0,-5.358856201E-2,-8.587342529E0,1.350192261E-1,8.588571106E0
8.901402042E0,-5.875282288E-1,-8.494385834E0,7.376660156E-1,8.546574241E0
8.911412042E0,-1.109642487E0,-8.331973572E0,1.054257660E0,8.471395945E0
8.921423042E0,-1.578467560E0,-8.279133453E0,1.368903351E0,8.538706399E0
8.931433042E0,-2.106269989E0,-8.602610779E0,2.061213684E0,9.093398008E0
8.941444042E0,-2.423610077E0,-9.094787292E0,2.375410309E0,9.707297041E0
8.951454042E0,-2.326761475E0,-9.370064850E0,1.753154297E0,9.812516713E0
8.961465042E0,-2.189496918E0,-9.314230957E0,9.324110413E-1,9.613437753E0
8.971475042E0,-1.943558350E0,-9.069190521E0,2.695893860E-1,9.279025499E0
8.981486042E0,-1.811832275E0,-8.888665924E0,-1.026864624E-1,9.072026379E0
8.991496042E0,-1.751358032E0,-8.873996429E0,-1.074765015E-1,9.045806696E0
9.001507042E0,-1.867666168E0,-9.226513367E0,9.280700684E-2,9.414103195E0
9.011518042E0,-2.064506836E0,-1.010159363E1,2.700384521E-1,1.031393732E1
9.021528042E0,-2.067201233E0,-1.104672821E1,3.561094666E-1,1.124412465E1
9.031539042E0,-1.644779663E0,-1.175685150E1,2.146536255E-1,1.187328655E1
9.041549042E0,-7.183561707E-1,-1.220651642E1,-7.647596741E-1,1.225152791E1
9.051560042E0,9.006770325E-1,-1.258792328E1,-3.502716064E0,1.309717723E1
9.061570042E0,2.351609802E0,-1.254346573E1,-5.941444702E0,1.407726416E1
9.071581042E0,2.510728912E0,-1.212658264E1,-4.480482788E0,1.316937706E1
9.081591042E0,1.908680878E0,-1.224812988E1,-2.050885162E0,1.256446888E1
9.091602042E0,1.295855255E0,-1.308129730E1,-1.625619507E-1,1.314633053E1
9.101612042E0,8.309220886E-1,-1.372825195E1,6.893165588E-1,1.377063871E1
9.111623042E0,5.304968262E-1,-1.399679352E1,-1.134640503E0,1.405272446E1
9.121633042E0,5.105882263E-1,-1.424318115E1,-4.590803375E0,1.497345602E1
9.131644042E0,1.500330048E0,-1.431892365E1,-6.895261230E0,1.596330768E1
9.141654042E0,2.591411133E0,-1.384949982E1,-6.248605957E0,1.541327782E1
9.151665042E0,2.965034180E0,-1.281275574E1,-3.202440491E0,1.353564784E1
9.161675042E0,2.575095062E0,-1.187031555E1,-7.270381165E-1,1.216815887E1
9.171686042E0,1.510359192E0,-1.137289993E1,1.856140137E-1,1.147425337E1
9.181696042E0,4.725672913E-1,-1.158964920E1,5.887257385E-1,1.161421054E1
9.191707042E0,-4.884342957E-1,-1.244377304E1,9.458830261E-1,1.248922537E1
9.201717042E0,-1.421893158E0,-1.383243530E1,1.338815918E0,1.396962686E1
9.211728042E0,-2.399510193E0,-1.563917816E1,1.635199585E0,1.590645845E1
9.221738042E0,-3.650608521E0,-1.722438171E1,1.953138428E0,1.771499415E1
9.231749042E0,-4.965025177E0,-1.820125031E1,2.149230652E0,1.898831694E1
9.241759417E0,-5.870941315E0,-1.824031906E1,2.361489258E0,1.930683358E1
9.251770417E0,-6.132148132E0,-1.742586273E1,2.860102386E0,1.869342447E1
9.261781417E0,-5.688321075E0,-1.583542007E1,2.592908020E0,1.702470844E1
9.271791417E0,-4.911286926E0,-1.405936340E1,2.081571350E0,1.503726630E1
9.281802417E0,-4.596790924E0,-1.244586868E1,1.870809631E0,1.339888289E1
9.291812417E0,-4.554429016E0,-1.117156860E1,1.611997833E0,1.217149562E1
9.301823417E0,-4.791685638E0,-1.006207581E1,7.656578064E-1,1.117102738E1
9.311833417E0,-5.518574066E0,-8.865613861E0,-1.933978271E0,1.062045389E1
9.321844417E0,-5.822591858E0,-8.016429749E0,-4.234095154E0,1.077465933E1
9.331854417E0,-5.354515228E0,-7.736661530E0,-3.735931091E0,1.012343549E1
9.341865417E0,-4.423451385E0,-7.564519501E0,-1.972148895E0,8.982107142E0
9.351875417E0,-4.124972076E0,-7.326065369E0,-1.242416382E-1,8.408451962E0
9.361886417E0,-4.125271454E0,-7.270830231E0,1.789678345E0,8.549022482E0
9.371896417E0,-3.809428253E0,-7.073989563E0,3.049308929E0,8.593681219E0
9.381907417E0,-3.232228546E0,-6.762187958E0,3.721411285E0,8.367997927E0
9.391917417E0,-2.543211365E0,-6.327940979E0,3.572770386E0,7.699055092E0
9.401928417E0,-2.046544189E0,-5.809568939E0,3.046913910E0,6.871907941E0
9.411938417E0,-1.411864014E0,-5.315596161E0,2.491269379E0,6.037826236E0
9.421949417E0,-5.864804077E-1,-4.878056030E0,1.400188293E0,5.108807802E0
9.431959417E0,-1.706451416E-2,-4.443060608E0,7.014413452E-1,4.498121688E0
9.441970417E0,-3.570075989E-1,-4.032913513E0,1.379231873E0,4.277163358E0
9.451980417E0,-1.754351807E0,-3.592828674E0,2.335892487E0,4.630611391E0
9.461991417E0,-2.779569855E0,-3.446582794E0,3.081042938E0,5.394234619E0
9.472001417E0,-2.813698883E0,-3.315305786E0,3.523373108E0,5.596633981E0
9.482012417E0,-2.644999695E0,-3.022514648E0,3.781586151E0,5.516521731E0
9.492022417E0,-2.486778717E0,-2.732717285E0,3.694467316E0,5.225026401E0
9.502033417E0,-2.202220459E0,-2.492616577E0,3.233126678E0,4.638536458E0
9.512043417E0,-2.085163879E0,-2.332449646E0,2.367177429E0,3.923233199E0
9.522054417E0,-2.192790070E0,-2.430944824E0,1.217568054E0,3.492891781E0
9.532064417E0,-2.406096497E0,-2.997666321E0,-6.885681152E-2,3.844482408E0
9.542075417E0,-2.966231689E0,-4.242028656E0,-1.577868805E0,5.411377599E0
9.552086417E0,-3.577560425E0,-6.424041138E0,-3.699556732E0,8.231279557E0
9.562096417E0,-3.547922058E0,-1.004441254E1,-8.321195984E0,1.351740644E1
9.572107417E0,-1.963916016E-1,-1.560175598E1,-2.157104279E1,2.662260780E1
9.582117417E0,3.521127777E0,-2.029554520E1,-2.479713409E1,3.223670819E1
9.592128417E0,3.779640198E0,-2.181862793E1,-1.281245636E1,2.558314372E1
9.602138417E0,5.216502228E0,-2.220213043E1,-5.550757141E0,2.347248168E1
9.612149417E0,8.062084808E0,-2.081750977E1,-2.111060028E0,2.242370395E1
9.622159417E0,1.058508820E1,-1.794692917E1,-1.148561554E0,2.086757179E1
9.632170417E0,1.066831512E1,-1.381342484E1,-1.522334290E0,1.751973616E1
9.642180417E0,6.720275116E0,-9.323212280E0,-2.625390472E0,1.178885321E1
9.652191417E0,1.399888916E0,-6.844666443E0,-1.477128296E0,7.140802174E0
9.662201417E0,-2.284698944E0,-7.078480225E0,2.032024384E0,7.710632571E0
9.672212417E0,-4.569248199E0,-1.008872040E1,5.343288574E0,1.229678987E1
9.682222417E0,-5.668562164E0,-1.376193192E1,6.758894806E0,1.634643772E1
9.692233417E0,-5.379513245E0,-1.552167252E1,5.368286591E0,1.728236041E1
9.702243417E0,-5.442083130E0,-1.714729202E1,-1.992356873E-1,1.799126420E1
9.712254417E0,-4.339326324E0,-1.790711197E1,-1.283775375E1,2.245667681E1
9.722264417E0,-5.491480408E0,-1.279135025E1,-1.222447906E1,1.852600569E1
9.732275417E0,-6.699318695E0,-5.615572357E0,-4.236041107E0,9.713885327E0
9.742285417E0,-5.545817413E0,-3.413202209E0,6.508465576E-1,6.544435907E0
9.752296417E0,-5.504353638E0,-3.590733032E0,5.169799347E0,8.361704250E0
9.762306417E0,-6.239025879E0,-4.285139008E0,8.071964264E0,1.106546281E1
9.772317417E0,-6.371650085E0,-5.164410553E0,8.047415314E0,1.149042882E1
9.782327417E0,-5.816454620E0,-6.496191101E0,6.481970673E0,1.086497064E1
9.792338417E0,-5.241949310E0,-8.013585663E0,5.241051178E0,1.091623585E1
9.802348417E0,-5.150639191E0,-9.698032837E0,4.211791534E0,1.176095714E1
9.812359417E0,-5.073250122E0,-1.110675339E1,3.364104309E0,1.266550573E1
9.822370417E0,-4.786446533E0,-1.187854843E1,2.529589691E0,1.305407244E1
9.832380417E0,-4.319118347E0,-1.189755890E1,1.683998108E0,1.276881125E1
9.842391417E0,-3.649261322E0,-1.137724091E1,1.102756805E0,1.199894960E1
9.852401417E0,-3.030148773E0,-1.074779984E1,7.797285461E-1,1.119397068E1
9.862412417E0,-2.643053741E0,-1.006312363E1,5.593867493E-1,1.041945794E1
9.872422417E0,-2.518213348E0,-9.383985901E0,5.498066711E-1,9.731540332E0
9.882433417E0,-2.378404083E0,-8.982371063E0,5.111869812E-1,9.305971633E0
9.892443417E0,-2.232457581E0,-8.756490784E0,4.682263184E-1,9.048714471E0
9.902454417E0,-2.037712555E0,-8.406219177E0,1.132993927E0,8.723558251E0
9.912464417E0,-1.842219086E0,-8.563092957E0,1.305285645E0,8.855738408E0
9.922475417E0,-1.913021851E0,-9.263935547E0,1.175954590E0,9.532209797E0
9.932485417E0,-2.070644073E0,-9.523795166E0,1.154848480E0,9.814474833E0
9.942496417E0,-2.134710846E0,-9.312285004E0,7.457492065E-1,9.582890183E0
9.952506417E0,-2.235900421E0,-8.514743500E0,9.894424438E-2,8.803970554E0
9.962517417E0,-2.545157318E0,-8.079149323E0,-9.345066833E-1,8.521958829E0
9.972527417E0,-2.452200623E0,-7.994575195E0,-1.349443817E0,8.470390727E0
9.982538417E0,-1.975741425E0,-7.851023712E0,-9.107061768E-1,8.146871378E0
9.992548417E0,-1.469494171E0,-8.181386719E0,-2.734812927E-1,8.316807908E0
1.000255942E1,-1.362017670E0,-8.449928284E0,2.451901245E-1,8.562505377E0
1.001256942E1,-1.270707550E0,-8.378077698E0,6.562353516E-1,8.499266346E0
1.002258042E1,-1.410666504E0,-8.726702728E0,1.393003235E0,8.949065790E0
1.003259042E1,-1.487007751E0,-9.257199554E0,1.432221680E0,9.484629386E0
1.004260142E1,-1.130898285E0,-9.411977692E0,2.438429260E-1,9.482811523E0
1.005261142E1,-7.679031372E-1,-9.529333649E0,-7.235952759E-1,9.587568260E0
1.006262242E1,-6.863227844E-1,-9.672136688E0,-1.063538361E0,9.754608189E0
1.007263242E1,-9.508227539E-1,-9.909992065E0,-1.058898010E0,1.001165679E1
1.008264342E1,-1.495839386E0,-1.039228912E1,-6.215075684E-1,1.051776974E1
1.009265342E1,-1.921254730E0,-1.096679443E1,-2.784210205E-2,1.113384817E1
1.010266442E1,-1.990859985E0,-1.076007431E1,-4.433779907E-1,1.095168054E1
1.011267442E1,-1.933678894E0,-1.052955368E1,-1.715432739E0,1.084220108E1
1.012268542E1,-1.115031281E0,-1.101828735E1,-2.842139740E0,1.143344695E1
1.013269542E1,-1.571731567E-1,-1.156195679E1,-2.872376862E0,1.191444908E1
1.014270642E1,3.442840576E-1,-1.151510422E1,-1.795216827E0,1.165928643E1
1.015271742E1,6.893165588E-1,-1.141166931E1,-3.764671326E-1,1.143866606E1
1.016272742E1,1.227746887E0,-1.139355698E1,9.312135315E-1,1.149728932E1
1.017273842E1,1.851649475E0,-1.164473465E1,1.703457642E0,1.191344697E1
1.018274842E1,2.335293732E0,-1.217208801E1,2.151925049E0,1.257951131E1
1.019275942E1,2.585423584E0,-1.271351212E1,2.549049225E0,1.322177966E1
1.020276942E1,2.760858765E0,-1.308159668E1,1.708397369E0,1.347846929E1
1.021278042E1,2.897674255E0,-1.325598404E1,-2.458337860E0,1.378988956E1
1.022279042E1,2.609673157E0,-1.372585693E1,-9.059460754E0,1.665182788E1
1.023280142E1,2.525697784E0,-1.441442505E1,-1.159384048E1,1.867008131E1
1.024281117E1,2.648741913E0,-1.429736847E1,-7.865693207E0,1.653177875E1
1.025282217E1,1.728455658E0,-1.358964020E1,-2.222578125E0,1.387824676E1
1.026283217E1,6.108796692E-1,-1.307545944E1,7.713459778E-1,1.311242877E1
1.027284317E1,-1.883084106E-1,-1.298384995E1,1.222657471E0,1.304264968E1
1.028285317E1,-6.029461670E-1,-1.379171997E1,1.066382446E0,1.384601948E1
1.029286417E1,-1.131347351E0,-1.517110153E1,9.912387085E-1,1.524548532E1
1.030287417E1,-2.130669250E0,-1.679252975E1,1.125359802E0,1.696452893E1
1.031288517E1,-3.619772644E0,-1.805141190E1,1.584155731E0,1.847879257E1
1.032289517E1,-4.907694397E0,-1.849508926E1,2.365081787E0,1.928075214E1
1.033290617E1,-5.458848267E0,-1.795082108E1,2.553689575E0,1.893547813E1
1.034291617E1,-5.379064178E0,-1.639570496E1,2.286195831E0,1.740632540E1
1.035292717E1,-4.961732025E0,-1.437760162E1,2.071542206E0,1.535009773E1
1.036293717E1,-4.543202362E0,-1.265782791E1,1.914818115E0,1.358410187E1
1.037294817E1,-4.447102203E0,-1.149654282E1,1.939666443E0,1.247836210E1
1.038295817E1,-4.451892242E0,-1.074720108E1,1.859732666E0,1.178050428E1
1.039296917E1,-4.577481079E0,-1.010832962E1,1.685944061E0,1.122381700E1
1.040297917E1,-4.877157898E0,-9.482630768E0,9.440867615E-1,1.070505746E1
1.041299017E1,-5.363496552E0,-8.841663666E0,-7.785310364E-1,1.037054590E1
1.042300017E1,-5.347629547E0,-8.075107727E0,-1.797162781E0,9.850598999E0
1.043301117E1,-4.738546143E0,-7.310946808E0,-1.542991333E0,8.847857652E0
1.044302117E1,-4.033063202E0,-6.796167297E0,-3.345542908E-1,7.909830295E0
1.045303217E1,-3.557352448E0,-6.489604797E0,7.646099854E-1,7.440050759E0
1.046304217E1,-3.118315430E0,-6.316564636E0,1.522184601E0,7.206935957E0
1.047305317E1,-2.872975616E0,-6.200555878E0,2.261048126E0,7.198140087E0
1.048306317E1,-2.797382812E0,-5.970933380E0,2.588417358E0,7.083593753E0
1.049307417E1,-2.656825104E0,-5.651347961E0,2.659818878E0,6.787568775E0
1.050308417E1,-2.346071320E0,-5.293292542E0,2.642305298E0,6.364336089E0
1.051309517E1,-1.803898773E0,-4.962031403E0,2.232307892E0,5.732277466E0
1.052310517E1,-1.373394012E0,-4.657115479E0,1.848805389E0,5.195480446E0
1.053311617E1,-1.256487122E0,-4.242477722E0,2.137704620E0,4.913975799E0
1.054312717E1,-1.829196167E0,-3.789968719E0,2.756966858E0,5.030972845E0
1.055313717E1,-2.585423584E0,-3.539838867E0,3.124452667E0,5.383036205E0
1.056314817E1,-2.512824554E0,-3.412753143E0,3.341800690E0,5.397110626E0
1.057315817E1,-2.267035675E0,-3.184178467E0,3.437152405E0,5.205041778E0
1.058316917E1,-2.210453339E0,-3.034040680E0,3.333118744E0,5.020078423E0
1.059317917E1,-2.226769409E0,-2.986289978E0,2.879112854E0,4.708048498E0
1.060319017E1,-2.209854584E0,-2.985391846E0,2.060465240E0,4.247533256E0
1.061320017E1,-2.270628204E0,-3.218157806E0,9.289682007E-1,4.046637373E0
1.062321117E1,-2.482737122E0,-3.859873352E0,-2.754272461E-1,4.597658760E0
1.063322117E1,-2.868634644E0,-5.096302185E0,-1.412462769E0,6.016345382E0
1.064323217E1,-3.121608582E0,-7.019502869E0,-2.837349701E0,8.189530755E0
1.065324217E1,-3.090024261E0,-9.546697540E0,-6.359076233E0,1.187962686E1
1.066325317E1,-1.165177002E0,-1.364771942E1,-1.772928177E1,2.240413611E1
1.067326317E1,2.884801025E0,-1.818059326E1,-2.501403305E1,3.105733243E1
1.068327417E1,3.937711487E0,-1.959290634E1,-1.282143768E1,2.374398482E1
1.069328417E1,5.612877960E0,-2.049073929E1,-5.583089905E0,2.196692260E1
1.070329517E1,7.465126190E0,-2.044448547E1,-1.632654877E0,2.182591710E1
1.071330517E1,8.187224579E0,-1.862322281E1,3.676354980E-1,2.034674986E1
1.072331617E1,7.852969666E0,-1.581117050E1,-4.522096252E-1,1.765974911E1
1.073332617E1,7.006180573E0,-1.249242188E1,-3.749103699E0,1.480550401E1
1.074333717E1,3.857178955E0,-1.015802628E1,-6.851402435E0,1.284542886E1
1.075334717E1,-2.649490356E-2,-1.119941071E1,-5.543123016E0,1.249614800E1
1.076335817E1,-2.748584290E0,-1.497321304E1,-6.673123169E-1,1.523801595E1
1.077336817E1,-3.626508636E0,-1.819690933E1,2.249073029E0,1.869056991E1
1.078337917E1,-1.991907806E0,-1.891302017E1,2.587070160E0,1.919278408E1
1.079338917E1,-2.035766602E-2,-1.675780197E1,1.654509430E0,1.683929164E1
1.080340017E1,-6.183641052E-1,-1.241742783E1,2.601589966E-1,1.243553661E1
1.081341017E1,-2.685265961E0,-8.078550568E0,1.544338531E0,8.652087266E0
1.082342117E1,-4.871469727E0,-4.750970306E0,2.995870056E0,7.434929290E0
1.083343117E1,-4.902155914E0,-2.273172913E0,1.954635315E0,5.746220228E0
1.084344217E1,-4.555776215E0,-8.101153564E-1,1.541644135E0,4.877299503E0
1.085345217E1,-6.026916962E0,-2.373763733E0,3.159180450E0,7.206865022E0
1.086346317E1,-7.778424683E0,-4.734504547E0,4.764142914E0,1.027698796E1
1.087347317E1,-8.567433929E0,-6.633755035E0,4.857249298E0,1.187436317E1
1.088348417E1,-8.605454865E0,-8.128845978E0,4.175267487E0,1.255248378E1
1.089349417E1,-8.439749451E0,-9.315129089E0,3.463946686E0,1.303840203E1
1.090350517E1,-7.670798492E0,-1.016865417E1,2.794987793E0,1.304049976E1
1.091351517E1,-6.558910675E0,-1.066053131E1,2.015408936E0,1.267785906E1
1.092352617E1,-5.589526520E0,-1.067415298E1,1.243314514E0,1.211305823E1
1.093353617E1,-4.726720734E0,-1.023466690E1,7.985893250E-1,1.130168308E1
1.094354717E1,-4.083657990E0,-9.750124512E0,5.334906006E-1,1.058422424E1
1.095355717E1,-3.629352722E0,-9.468110962E0,2.224374390E-1,1.014232738E1
1.096356817E1,-3.341501312E0,-9.104816437E0,2.013313293E-1,9.700713771E0
1.097357817E1,-3.218756561E0,-8.825048218E0,4.528083801E-1,9.404621485E0
1.098358917E1,-3.288361816E0,-8.851094055E0,7.423063660E-1,9.471336133E0
1.099360017E1,-3.135679321E0,-8.850794678E0,7.330256653E-1,9.418406333E0
1.100361017E1,-2.771187286E0,-8.817713470E0,4.716691589E-1,9.254945792E0
1.101362117E1,-2.551144867E0,-8.950487366E0,3.614982605E-1,9.313981169E0
1.102363117E1,-2.306852875E0,-9.098379822E0,5.544470215E-1,9.402632454E0
1.103364217E1,-2.159708862E0,-9.368118896E0,1.136436768E0,9.680779026E0
1.104365217E1,-1.896256714E0,-9.727820892E0,1.545386353E0,1.003067833E1
1.105366317E1,-1.470691681E0,-9.988728333E0,1.300944672E0,1.017988628E1
1.106367317E1,-8.901988220E-1,-9.866282959E0,5.766009521E-1,9.923127633E0
1.107368417E1,-3.929328918E-1,-9.509275360E0,-4.150868225E-1,9.526437487E0
1.108369417E1,-1.025367737E-1,-9.158704376E0,-1.078806610E0,9.222592008E0
1.109370517E1,-1.691482544E-1,-9.178313599E0,-1.042881317E0,9.238920559E0
1.110371517E1,-3.076103210E-1,-9.288933563E0,-5.156776428E-1,9.308320702E0
1.111372617E1,-5.508544922E-1,-9.164242859E0,-1.143621826E-1,9.181495878E0
1.112373617E1,-7.707472229E-1,-8.973838806E0,2.830613708E-1,9.011323873E0
1.113374717E1,-1.166973267E0,-9.360933838E0,1.316362610E0,9.524794982E0
1.114375717E1,-1.506018219E0,-1.030412247E1,1.937421112E0,1.059229112E1
1.115376817E1,-1.488205261E0,-1.095556778E1,9.386979675E-1,1.109596206E1
1.116377817E1,-1.184187469E0,-1.103834564E1,-1.643582153E-1,1.110289999E1
1.117378917E1,-9.192384338E-1,-1.073118439E1,-8.008346558E-1,1.080021545E1
1.118379917E1,-8.080197144E-1,-1.005129822E1,-8.587641907E-1,1.012022567E1
1.119381017E1,-8.569679260E-1,-9.299262085E0,-4.129911804E-1,9.347792845E0
1.120382017E1,-7.815248108E-1,-8.894054718E0,-2.917433167E-1,8.933090424E0
1.121383117E1,-9.054670715E-1,-9.679172058E0,-1.224004669E0,9.798185025E0
1.122384117E1,-1.304237823E0,-1.106124802E1,-2.620600433E0,1.144201864E1
1.123385217E1,-1.158590698E0,-1.185684357E1,-3.609294434E0,1.244805519E1
1.124386204E1,-5.001100159E-1,-1.192510162E1,-2.977907410E0,1.230146704E1
1.125387304E1,-4.415817261E-2,-1.179547119E1,-1.154549103E0,1.185192281E1
1.126388304E1,4.535568237E-1,-1.184726349E1,8.238867188E-1,1.188453429E1
1.127389404E1,9.372010803E-1,-1.184965851E1,1.948947144E0,1.204537868E1
1.128390404E1,1.534159698E0,-1.180190781E1,2.307900696E0,1.212291547E1
1.129391504E1,1.779499512E0,-1.180490158E1,1.986818390E0,1.210246947E1
1.130392504E1,1.588496704E0,-1.180639847E1,1.294358368E0,1.198289323E1
1.131393604E1,6.262976074E-1,-1.167691772E1,-2.265239410E0,1.191108584E1
1.132394604E1,-4.366419983E-1,-1.187211182E1,-9.057215424E0,1.493890379E1
1.133395704E1,-6.032455444E-2,-1.257445129E1,-1.193498108E1,1.733678857E1
1.134396704E1,1.248703308E0,-1.315030380E1,-8.155640259E0,1.552431055E1
1.135397804E1,1.579365692E0,-1.302486465E1,-2.726729736E0,1.340061753E1
1.136398804E1,1.025367737E0,-1.249092499E1,5.881269836E-1,1.254673182E1
1.137399904E1,7.355703735E-1,-1.214065338E1,1.282083893E0,1.223030120E1
1.138400904E1,4.661306763E-1,-1.250424728E1,1.298399963E0,1.258011607E1
1.139402004E1,-2.677931213E-1,-1.370969055E1,1.485660553E0,1.379255290E1
1.140403004E1,-1.242416382E0,-1.548604660E1,1.621128845E0,1.562015674E1
1.141404104E1,-2.343376923E0,-1.721090973E1,1.838776245E0,1.746676636E1
1.142405104E1,-3.452420654E0,-1.844299759E1,2.143692169E0,1.888541195E1
1.143406204E1,-4.459975433E0,-1.893517410E1,2.628833313E0,1.963015445E1
1.144407204E1,-5.018164673E0,-1.830453552E1,2.674338684E0,1.916742249E1
1.145408304E1,-5.351072388E0,-1.654210052E1,2.517614594E0,1.756739732E1
1.146409304E1,-5.246439972E0,-1.432281555E1,2.337688751E0,1.543155748E1
1.147410404E1,-4.945415955E0,-1.239452545E1,2.064656525E0,1.350348869E1
1.148411404E1,-4.636608124E0,-1.101888611E1,1.749861145E0,1.208205281E1
1.149412504E1,-4.595892792E0,-9.880503387E0,9.306147766E-1,1.093675553E1
1.150413504E1,-5.130431213E0,-8.943302307E0,-1.370400238E0,1.040105655E1
1.151414604E1,-5.608387299E0,-8.293802948E0,-3.527863770E0,1.061541324E1
1.152415604E1,-5.509293365E0,-7.860903168E0,-3.814068604E0,1.032924157E1
1.153416704E1,-4.715344391E0,-7.551197205E0,-2.520758057E0,9.252527932E0
1.154417704E1,-4.091441803E0,-7.236401825E0,-8.605604553E-1,8.357390244E0
1.155418804E1,-3.644471283E0,-6.903643799E0,9.433383179E-1,7.863355252E0
1.156419804E1,-3.205134888E0,-6.768474884E0,2.442470856E0,7.877233384E0
1.157420904E1,-2.824476471E0,-6.491550751E0,3.279530182E0,7.802128985E0
1.158421904E1,-2.380948792E0,-6.233487396E0,3.408561859E0,7.492901722E0
1.159423004E1,-2.049687653E0,-5.937702484E0,3.029999084E0,6.974125373E0
1.160424004E1,-1.723815308E0,-5.615572357E0,2.394420776E0,6.343456705E0
1.161425104E1,-1.153950348E0,-5.246589661E0,1.501228180E0,5.577812342E0
1.162426204E1,-4.204756165E-1,-4.940775604E0,8.053253174E-1,5.023605496E0
1.163427204E1,-2.269281006E-1,-4.669988708E0,1.332229614E0,4.861597129E0
1.164428304E1,-1.125958557E0,-4.332889709E0,2.424957275E0,5.091378369E0
1.165429304E1,-2.715802460E0,-3.994892578E0,3.075953522E0,5.726800134E0
1.166430404E1,-3.241509247E0,-3.793112183E0,3.407663727E0,6.042123327E0
1.167431404E1,-3.283571777E0,-3.448229370E0,3.377875671E0,5.837993958E0
1.168432504E1,-3.178639984E0,-3.203937378E0,3.223995667E0,5.546450660E0
1.169433504E1,-3.077151031E0,-2.976410522E0,2.863245850E0,5.150345121E0
1.170434604E1,-3.110082550E0,-2.728825378E0,2.019600220E0,4.604116252E0
1.171435604E1,-3.119662628E0,-2.629581757E0,1.177002411E0,4.246449082E0
1.172436704E1,-3.100053406E0,-2.797233124E0,2.475851440E-1,4.182839068E0
1.173437704E1,-3.084336090E0,-3.365152130E0,-8.499325562E-1,4.643249221E0
1.174438804E1,-3.340902557E0,-4.655468903E0,-2.146087189E0,6.118881501E0
1.175439804E1,-3.936364288E0,-6.909331970E0,-4.535717926E0,9.154592792E0
1.176440904E1,-3.163671112E0,-1.106214615E1,-1.104597977E1,1.594971979E1
1.177441904E1,2.013313293E0,-1.722602829E1,-2.462903366E1,3.012272863E1
1.178443004E1,5.080285492E0,-2.077814163E1,-1.894999329E1,2.857696128E1
1.179444004E1,5.112019501E0,-2.190290268E1,-8.181237030E0,2.393329331E1
1.180445104E1,6.345304871E0,-2.211665817E1,-3.169059906E0,2.322611468E1
1.181446104E1,8.145012360E0,-2.059222824E1,-1.485061798E0,2.219428978E1
1.182447204E1,9.656419373E0,-1.732452347E1,-2.170785828E0,1.995238982E1
1.183448204E1,9.978699188E0,-1.307411224E1,-3.256478119E0,1.676638000E1
1.184449304E1,7.674840088E0,-9.500743103E0,-4.214785309E0,1.292020530E1
1.185450304E1,2.795436859E0,-7.759264526E0,-2.650388489E0,8.662863982E0
1.186451404E1,-1.789528656E0,-9.313332825E0,1.492695923E0,9.600454272E0
1.187452404E1,-5.293292542E0,-1.402164185E1,5.676345978E0,1.602642473E1
1.188453504E1,-6.131100311E0,-1.702858887E1,7.288792877E0,1.951127191E1
1.189454504E1,-4.887336731E0,-1.771087006E1,6.154152374E0,1.937613403E1
1.190455604E1,-3.868255920E0,-1.647174683E1,1.789977722E0,1.701428422E1
1.191456604E1,-2.988834686E0,-1.336286179E1,-3.793860626E0,1.420889110E1
1.192457704E1,-4.780009918E0,-8.245453491E0,-5.998326416E0,1.126125738E1
1.193458704E1,-5.824238434E0,-3.859723663E0,-4.779560852E0,8.465425094E0
1.194459804E1,-5.954018555E0,-3.181184692E0,-2.849025421E0,7.327156259E0
1.195460804E1,-6.969357147E0,-4.325105896E0,4.285588074E-1,8.213534118E0
1.196461904E1,-7.902067566E0,-5.977070618E0,3.688629456E0,1.057232388E1
1.197462904E1,-8.358169098E0,-7.243886261E0,4.965025177E0,1.212371040E1
1.198464004E1,-7.641908569E0,-8.061036987E0,4.348457336E0,1.192846030E1
1.199465004E1,-6.738537140E0,-8.621471558E0,3.700903931E0,1.155137847E1
1.200466104E1,-5.931565247E0,-9.332043915E0,3.374732208E0,1.156111272E1
1.201467104E1,-5.197192383E0,-1.009066635E1,2.989433441E0,1.173750691E1
1.202468204E1,-4.608915710E0,-1.050859726E1,2.617756348E0,1.176968006E1
1.203469204E1,-4.137246552E0,-1.063164139E1,2.370769958E0,1.165200231E1
1.204470304E1,-3.715124359E0,-1.061053528E1,2.230511627E0,1.146127349E1
1.205471304E1,-3.359913025E0,-1.053149963E1,1.848506012E0,1.120796478E1
1.206472404E1,-2.958298187E0,-1.029379395E1,1.442101135E0,1.080709848E1
1.207473404E1,-2.639311523E0,-9.817634125E0,1.183139648E0,1.023482899E1
1.208474504E1,-2.533930664E0,-9.413175201E0,1.036594391E0,9.803223955E0
1.209475504E1,-2.447260895E0,-9.095685425E0,1.121617584E0,9.485705311E0
1.210476604E1,-2.218686218E0,-8.759933624E0,1.271006927E0,9.125484329E0
1.211477604E1,-1.944007416E0,-8.657546539E0,1.111738129E0,8.942496216E0
1.212478704E1,-1.703008575E0,-8.637637939E0,9.047186279E-1,8.850284921E0
1.213479704E1,-1.481618958E0,-8.635093231E0,8.885522461E-1,8.806222513E0
1.214480804E1,-1.232237549E0,-8.442294159E0,7.048841858E-1,8.560817821E0
1.215481804E1,-9.550140381E-1,-8.040379944E0,-1.648072815E-1,8.098575362E0
1.216482904E1,-8.161029053E-1,-7.819439392E0,-1.184636536E0,7.950661613E0
1.217483904E1,-7.267387390E-1,-7.930957489E0,-1.402134247E0,8.086669051E0
1.218485004E1,-7.270381165E-1,-8.240663452E0,-1.020128632E0,8.335333285E0
1.219486004E1,-9.448352051E-1,-8.291557617E0,-5.071453857E-1,8.360612282E0
1.220487104E1,-1.212478638E0,-8.186176758E0,-1.175056458E-1,8.276315722E0
1.221488104E1,-1.496587830E0,-8.196205902E0,4.776567078E-1,8.345401264E0
1.222489204E1,-2.017354889E0,-8.403225403E0,1.753753052E0,8.818138561E0
1.223490204E1,-2.416874084E0,-9.094936981E0,2.716850281E0,9.794918809E0
1.224491367E1,-2.593057709E0,-9.588011627E0,2.005529480E0,1.013291980E1
1.225492367E1,-2.420167236E0,-9.620194702E0,8.949888611E-1,9.960238984E0
1.226493467E1,-1.997745667E0,-9.412726135E0,2.326162720E-1,9.625201888E0
1.227494467E1,-1.569336548E0,-9.337283020E0,-1.119671631E-1,9.468907437E0
1.228495567E1,-1.347647552E0,-9.263336792E0,-3.191363525E-1,9.366291179E0
1.229496567E1,-1.420995026E0,-9.401948547E0,-7.798782349E-2,9.509045454E0
1.230497667E1,-1.778451691E0,-9.714049530E0,2.291734314E-1,9.878166285E0
1.231498667E1,-1.693578186E0,-1.041638901E1,-5.167254639E-1,1.056581148E1
1.232499767E1,-3.728746033E-1,-1.115510284E1,-3.475921783E0,1.169005505E1
1.233500767E1,1.103954315E0,-1.165147064E1,-6.253096619E0,1.326938961E1
1.234501867E1,1.318009186E0,-1.169443130E1,-4.715194702E0,1.267793094E1
1.235502867E1,6.613247681E-1,-1.164084274E1,-1.916913757E0,1.181613848E1
1.236503967E1,3.679348755E-1,-1.168275558E1,-2.673440552E-1,1.169160498E1
1.237504967E1,5.102888489E-1,-1.201626205E1,1.506616974E0,1.212109084E1
1.238506067E1,8.018824768E-1,-1.248089584E1,2.581082611E0,1.277019045E1
1.239507067E1,1.430575104E0,-1.303309753E1,2.221230927E0,1.329819699E1
1.240508167E1,1.907183990E0,-1.361912888E1,2.048340454E0,1.390373046E1
1.241509167E1,2.213147736E0,-1.383378250E1,1.945653992E0,1.414415535E1
1.242510267E1,2.374661865E0,-1.363050522E1,6.318360901E-1,1.385023135E1
1.243511267E1,2.487227783E0,-1.319476135E1,-2.982398071E0,1.375437121E1
1.244512367E1,2.380350037E0,-1.271530838E1,-7.009773102E0,1.471332907E1
1.245513367E1,1.942211151E0,-1.249062561E1,-8.718769226E0,1.535593856E1
1.246514467E1,1.307680664E0,-1.308459045E1,-6.010750580E0,1.445841134E1
1.247515467E1,6.283932495E-1,-1.361478790E1,-2.017803955E0,1.377783947E1
1.248516567E1,-2.155517578E-1,-1.373214386E1,2.297721863E-1,1.373575745E1
1.249517567E1,-1.210682373E0,-1.392389511E1,1.195863190E0,1.402749784E1
1.250518667E1,-1.976789246E0,-1.462877930E1,1.450783081E0,1.483285714E1
1.251519667E1,-2.769091644E0,-1.557496170E1,1.482666779E0,1.588853679E1
1.252520767E1,-3.657344513E0,-1.635424118E1,1.655557251E0,1.683978157E1
1.253521767E1,-4.406237183E0,-1.669942337E1,1.994003448E0,1.738567562E1
1.254522867E1,-4.828059998E0,-1.657039169E1,2.117496643E0,1.738884229E1
1.255523867E1,-4.828059998E0,-1.596400269E1,1.999092865E0,1.679749735E1
1.256524967E1,-4.845872955E0,-1.489567429E1,1.932032318E0,1.578278638E1
1.257525967E1,-4.786446533E0,-1.382120865E1,1.744622040E0,1.473022692E1
1.258527067E1,-4.738845520E0,-1.287906784E1,1.618883514E0,1.381838736E1
1.259528067E1,-4.985981598E0,-1.212553482E1,1.652563477E0,1.321436995E1
1.260529167E1,-5.523513794E0,-1.133742371E1,1.099014587E0,1.265915534E1
1.261530167E1,-6.349346466E0,-1.039438477E1,-5.631289673E-1,1.219321735E1
1.262531267E1,-6.697522430E0,-9.361233215E0,-1.613644409E0,1.162296616E1
1.263532267E1,-6.207890625E0,-8.319699097E0,-1.036893768E0,1.043218327E1
1.264533367E1,-5.025499420E0,-7.458090820E0,2.160008240E-1,8.995855683E0
1.265534367E1,-3.988905029E0,-6.748117218E0,1.465901642E0,7.974792596E0
1.266535467E1,-3.310066681E0,-6.204298096E0,2.450254669E0,7.446717682E0
1.267536467E1,-2.838696899E0,-6.036646729E0,3.541186066E0,7.552436863E0
1.268537567E1,-2.549348602E0,-5.937852173E0,4.294719086E0,7.758986967E0
1.269538567E1,-2.442620544E0,-5.840853882E0,4.633764038E0,7.845619055E0
1.270539667E1,-2.255359955E0,-5.710774384E0,4.463867340E0,7.591159609E0
1.271540667E1,-1.821112976E0,-5.574857025E0,4.021387482E0,7.111050598E0
1.272541767E1,-1.135538635E0,-5.422324219E0,2.753973083E0,6.186712832E0
1.273542767E1,-2.498304749E-1,-5.223836975E0,1.457968140E0,5.429231907E0
1.274543867E1,3.397933960E-2,-4.860841827E0,1.788929901E0,5.179691888E0
1.275544867E1,-1.041833496E0,-4.209246826E0,2.847528534E0,5.187638637E0
1.276545967E1,-2.487377472E0,-3.652704163E0,3.421734467E0,5.589057268E0
1.277546967E1,-2.980452118E0,-3.261717224E0,3.402424622E0,5.576592811E0
1.278548067E1,-3.107388153E0,-2.809058533E0,3.143313446E0,5.237087969E0
1.279549067E1,-3.228785706E0,-2.350561981E0,2.781216431E0,4.866761099E0
1.280550167E1,-3.413800964E0,-1.918560333E0,2.210902405E0,4.496999024E0
1.281551167E1,-3.582500153E0,-1.624571686E0,1.607058105E0,4.249255965E0
1.282552267E1,-3.771407318E0,-1.785936127E0,7.508386230E-1,4.239910335E0
1.283553267E1,-4.086651764E0,-2.489473114E0,-6.429130554E-1,4.828202173E0
1.284554367E1,-4.500690765E0,-4.130959625E0,-2.054178314E0,6.445207005E0
1.285555367E1,-4.710554352E0,-6.800957336E0,-4.462669830E0,9.399881117E0
1.286556467E1,-3.785478058E0,-1.115210907E1,-1.292846512E1,1.748841305E1
1.287557467E1,1.315614166E0,-1.697035995E1,-2.708557526E1,3.198987878E1
1.288558567E1,4.507426758E0,-2.095866623E1,-2.103605530E1,3.003494978E1
1.289559567E1,3.795806580E0,-2.239298355E1,-8.369844818E0,2.420553991E1
1.290560667E1,4.497996368E0,-2.190469894E1,-3.088227997E0,2.257398856E1
1.291561667E1,6.869215393E0,-1.954874817E1,-1.374890900E0,2.076607811E1
1.292562767E1,8.571475525E0,-1.561223419E1,-1.333576813E0,1.786030448E1
1.293563767E1,6.471342773E0,-1.059586578E1,-2.666854248E0,1.269892754E1
1.294564867E1,1.932182007E0,-7.485633545E0,-3.963008881E0,8.687547195E0
1.295565867E1,-2.260748749E0,-8.740025024E0,-2.506387939E0,9.369151660E0
1.296566967E1,-4.588558044E0,-1.401445679E1,2.008373566E0,1.488265529E1
1.297567967E1,-4.238885193E0,-1.741628265E1,4.780309296E0,1.855118342E1
1.298569067E1,-3.264561310E0,-1.957105179E1,1.915566559E0,1.993371074E1
1.299570067E1,-1.923350372E0,-1.864747238E1,-5.130730591E0,1.943584059E1
1.300571167E1,-2.397115173E0,-1.298025742E1,-6.363866272E0,1.465373801E1
1.301572167E1,-6.080804901E0,-6.815626831E0,-1.740879822E-1,9.135604193E0
1.302573267E1,-6.224356384E0,-3.729943542E0,3.026107178E0,7.862087247E0
1.303574267E1,-5.326373749E0,-2.471959534E0,4.056414642E0,7.136899957E0
1.304575367E1,-5.668262787E0,-2.430645447E0,5.514831848E0,8.273488419E0
1.305576367E1,-6.621929626E0,-4.039948883E0,6.125861206E0,9.884195186E0
1.306577467E1,-7.168293457E0,-5.918841705E0,5.155429230E0,1.062993738E1
1.307578467E1,-7.059320068E0,-7.255561981E0,4.243226166E0,1.097643602E1
1.308579567E1,-6.554569702E0,-8.640631714E0,3.314707031E0,1.134064298E1
1.309580567E1,-6.001469879E0,-9.740245056E0,2.671195221E0,1.174841685E1
1.310581667E1,-5.524112549E0,-1.063209045E1,2.163750458E0,1.217534324E1
1.311582667E1,-5.005291443E0,-1.131467102E1,1.686093750E0,1.248669832E1
1.312583767E1,-4.389322357E0,-1.160476776E1,1.193917236E0,1.246443837E1
1.313584767E1,-4.048930206E0,-1.158770325E1,8.538244629E-1,1.230437802E1
1.314585867E1,-3.800147552E0,-1.135179382E1,7.140151978E-1,1.199225426E1
1.315586867E1,-3.730242920E0,-1.088341782E1,6.794371033E-1,1.152497854E1
1.316587967E1,-3.666325836E0,-1.040156982E1,7.493417358E-1,1.105423507E1
1.317588967E1,-3.442541199E0,-1.001642075E1,7.571255493E-1,1.061852219E1
1.318590067E1,-3.092568970E0,-9.616751862E0,9.403445435E-1,1.014544957E1
1.319591067E1,-2.610271912E0,-9.140442352E0,1.065933380E0,9.565428366E0
1.320592167E1,-2.166145477E0,-8.673862610E0,9.961784363E-1,8.995579486E0
1.321593167E1,-1.760938110E0,-8.456215210E0,7.948471069E-1,8.674114400E0
1.322594267E1,-1.473535767E0,-8.283175049E0,6.715036011E-1,8.439977111E0
1.323595267E1,-1.284179535E0,-8.103249207E0,8.086184692E-1,8.244126916E0
1.324596358E1,-1.233135681E0,-7.897876282E0,7.044351196E-1,8.024543738E0
1.325597358E1,-1.169517975E0,-7.638765106E0,3.504212952E-1,7.735715851E0
1.326598458E1,-1.198856964E0,-7.669301605E0,7.948471069E-2,7.762845029E0
1.327599458E1,-1.394649811E0,-8.004304962E0,-2.290237427E-2,8.124928956E0
1.328600558E1,-1.639839935E0,-8.380023651E0,1.308279419E-1,8.539964131E0
1.329601558E1,-1.725611572E0,-8.619076538E0,6.768923950E-1,8.816144224E0
1.330602658E1,-1.746867371E0,-8.760532379E0,1.315314789E0,9.029314823E0
1.331603658E1,-1.641636200E0,-8.624165955E0,1.988165588E0,9.001333803E0
1.332604758E1,-1.647773438E0,-8.487500153E0,2.483036499E0,8.995459210E0
1.333605758E1,-1.541344757E0,-8.727750549E0,2.264341278E0,9.147492265E0
1.334606858E1,-1.244961090E0,-9.035510559E0,1.338666229E0,9.218590264E0
1.335607858E1,-1.255738678E0,-9.311686249E0,5.358856201E-2,9.396129637E0
1.336608958E1,-1.544937286E0,-9.571246490E0,-7.092251587E-1,9.721038572E0
1.337609958E1,-1.881736908E0,-9.686656494E0,-1.224004669E0,9.943361366E0
1.338611058E1,-2.184856567E0,-1.002809647E1,-1.688788147E0,1.040136156E1
1.339612058E1,-2.147883453E0,-1.067026108E1,-2.615211639E0,1.119407016E1
1.340613158E1,-1.496288452E0,-1.093700638E1,-3.777245178E0,1.166724341E1
1.341614158E1,-8.613088989E-1,-1.086111420E1,-3.645519104E0,1.148892789E1
1.342615258E1,-7.427554321E-1,-1.087189178E1,-2.305954742E0,1.113854317E1
1.343616258E1,-8.836125183E-1,-1.079899338E1,-9.599537659E-1,1.087752455E1
1.344617358E1,-8.517288208E-1,-1.071741302E1,2.351609802E-1,1.075377537E1
1.345618358E1,-6.309379578E-1,-1.114582214E1,1.440155182E0,1.125617523E1
1.346619458E1,8.173004150E-2,-1.169068909E1,2.367327118E0,1.192824919E1
1.347620458E1,9.157955933E-1,-1.208017914E1,2.765050049E0,1.242637966E1
1.348621558E1,1.360670471E0,-1.243030106E1,2.862198029E0,1.282793772E1
1.349622558E1,1.626966705E0,-1.276904663E1,2.896027679E0,1.319403459E1
1.350623658E1,1.800156555E0,-1.313114365E1,2.351909180E0,1.346101682E1
1.351624658E1,1.606459351E0,-1.334250412E1,-4.568499756E-1,1.344662931E1
1.352625758E1,1.281036072E0,-1.376881760E1,-6.713838501E0,1.537195560E1
1.353626758E1,1.588047638E0,-1.444720688E1,-1.154504196E1,1.856156448E1
1.354627858E1,2.287992096E0,-1.432910248E1,-9.605525208E0,1.740184473E1
1.355628858E1,2.174677734E0,-1.349234253E1,-4.674629059E0,1.444384599E1
1.356629958E1,1.657054138E0,-1.262085480E1,-8.990304565E-1,1.276088006E1
1.357630958E1,8.436456299E-1,-1.189276886E1,6.929090881E-1,1.194277238E1
1.358632058E1,4.266128540E-2,-1.186821991E1,1.196012878E0,1.192840771E1
1.359633058E1,-6.007008362E-1,-1.252400620E1,1.374591522E0,1.261352744E1
1.360634158E1,-1.320404205E0,-1.389216110E1,1.560654602E0,1.404176806E1
1.361635158E1,-2.144889679E0,-1.567210968E1,1.732197876E0,1.591276478E1
1.362636258E1,-3.318299561E0,-1.731644028E1,2.081721039E0,1.775397923E1
1.363637258E1,-4.758754120E0,-1.847622849E1,2.655477905E0,1.926313377E1
1.364638358E1,-5.865702209E0,-1.874222534E1,3.054248657E0,1.987475555E1
1.365639358E1,-6.115682373E0,-1.796968185E1,3.078647919E0,1.922990145E1
1.366640458E1,-5.714217224E0,-1.620889343E1,2.735411682E0,1.740295900E1
1.367641458E1,-5.020110626E0,-1.416100204E1,2.489323425E0,1.522932109E1
1.368642558E1,-4.768633575E0,-1.252849686E1,2.234104156E0,1.359022888E1
1.369643558E1,-4.841082916E0,-1.117321518E1,1.539997559E0,1.227389155E1
1.370644658E1,-5.501958618E0,-9.896520081E0,-6.548881531E-1,1.134202525E1
1.371645658E1,-6.354585571E0,-8.878038025E0,-3.257076874E0,1.139336942E1
1.372646758E1,-6.288872223E0,-8.297545166E0,-3.838318176E0,1.109647944E1
1.373647758E1,-5.346731415E0,-7.934250641E0,-2.651436310E0,9.928241766E0
1.374648858E1,-4.561464386E0,-7.579787750E0,-6.105802917E-1,8.867522088E0
1.375649858E1,-3.927233276E0,-7.466323700E0,1.442699890E0,8.558652568E0
1.376650958E1,-3.702550507E0,-7.242838440E0,3.200344849E0,8.741269706E0
1.377651958E1,-3.378923492E0,-6.911876678E0,4.263733521E0,8.796055179E0
1.378653058E1,-3.015479279E0,-6.557114410E0,4.566404114E0,8.540545135E0
1.379654058E1,-2.590063934E0,-6.197711792E0,4.598736877E0,8.140543195E0
1.380655158E1,-2.002984772E0,-5.781876526E0,3.884272614E0,7.247731914E0
1.381656158E1,-8.532257080E-1,-5.399421844E0,2.071093140E0,5.845611786E0
1.382657258E1,2.739303589E-1,-5.128185883E0,5.248086548E-1,5.162242963E0
1.383658258E1,5.587879944E-1,-4.843178558E0,1.231189728E0,5.028364617E0
1.384659358E1,-5.987548828E-2,-4.372706909E0,2.639161835E0,5.107771136E0
1.385660358E1,-1.530866547E0,-3.830384674E0,3.719914398E0,5.554562293E0
1.386661458E1,-2.969524841E0,-3.397933960E0,4.034260712E0,6.053039936E0
1.387662458E1,-3.423381042E0,-3.031645660E0,3.742367706E0,5.908953310E0
1.388663558E1,-3.322490845E0,-2.690355377E0,3.379522247E0,5.449598892E0
1.389664558E1,-2.907254333E0,-2.400408325E0,3.241209869E0,4.971873822E0
1.390665658E1,-2.736609192E0,-2.148482208E0,3.016826477E0,4.605024176E0
1.391666658E1,-2.723286896E0,-2.067350922E0,2.476150818E0,4.221558269E0
1.392667758E1,-2.523602142E0,-2.255958710E0,1.653162231E0,3.767076165E0
1.393668758E1,-3.024011536E0,-2.910996552E0,-2.634521484E-2,4.197527935E0
1.394669858E1,-3.769161987E0,-4.343367920E0,-2.034569092E0,6.100073636E0
1.395670858E1,-4.090244293E0,-7.017706604E0,-5.366490326E0,9.735374814E0
1.396671958E1,-2.279310150E0,-1.153606064E1,-1.652578445E1,2.028244319E1
1.397672958E1,3.197650452E0,-1.695718735E1,-2.811573303E1,3.298887108E1
1.398674058E1,4.240980835E0,-2.019121216E1,-1.702035599E1,2.674627983E1
1.399675058E1,4.014950867E0,-2.164019897E1,-6.224655762E0,2.287278692E1
1.400676158E1,5.823190613E0,-2.179333054E1,-1.600322113E0,2.261459342E1
1.401677158E1,8.461154938E0,-1.969948471E1,1.347198486E-2,2.143970667E1
1.402678258E1,1.000085312E1,-1.614752106E1,-2.232906647E0,1.912447049E1
1.403679258E1,9.810748444E0,-1.287861877E1,-5.521867218E0,1.710557290E1
1.404680358E1,6.800807648E0,-1.192959229E1,-4.411476288E0,1.442315083E1
1.405681358E1,2.457140350E0,-1.556523193E1,1.309027863E0,1.581225910E1
1.406682458E1,-4.769082642E-1,-1.910626831E1,6.778204651E0,2.027858448E1
1.407683458E1,-1.639390869E0,-1.812850159E1,6.792425079E0,1.942851540E1
1.408684558E1,-2.570903778E0,-1.403212006E1,1.161734161E0,1.431291605E1
1.409685558E1,-3.711232452E0,-1.009006760E1,-2.370769958E0,1.100923524E1
1.410686658E1,-7.624844055E0,-7.346423035E0,-4.698130188E0,1.158363525E1
1.411687658E1,-8.685538330E0,-4.174818420E0,-5.256618805E0,1.097723673E1
1.412688658E1,-8.573421478E0,-2.821482697E0,-2.468965759E0,9.357356057E0
1.413689758E1,-9.695488129E0,-4.590653687E0,4.674629059E0,1.170165579E1
1.414690758E1,-1.049018555E1,-7.189100189E0,9.070537720E0,1.562055725E1
1.415691858E1,-9.686806183E0,-8.150850220E0,7.815248108E0,1.487779138E1
1.416692858E1,-8.189170532E0,-8.503367157E0,6.152356110E0,1.331244728E1
1.417693958E1,-6.698570251E0,-8.690178680E0,4.886438599E0,1.201113363E1
1.418694958E1,-5.704786835E0,-8.984616394E0,3.879033508E0,1.132761341E1
1.419696058E1,-5.117108917E0,-9.236093445E0,3.050057373E0,1.099059033E1
1.420697058E1,-4.558171234E0,-9.350305939E0,2.323168945E0,1.065843610E1
1.421698158E1,-4.079167328E0,-9.472751312E0,1.701511688E0,1.045312229E1
1.422699158E1,-3.819457397E0,-9.608518982E0,1.265767822E0,1.041700821E1
1.423700258E1,-3.798650665E0,-9.915979614E0,9.511221313E-1,1.066119280E1
1.424701379E1,-3.730093231E0,-1.018422180E1,7.798782349E-1,1.087383002E1
1.425702479E1,-3.672463074E0,-1.028601013E1,5.700146484E-1,1.093681426E1
1.426703479E1,-3.523073730E0,-1.010668304E1,5.439688110E-1,1.071694885E1
1.427704579E1,-3.172502747E0,-9.651629333E0,8.596623230E-1,1.019596694E1
1.428705579E1,-2.713407440E0,-9.288334808E0,9.747729492E-1,9.725529587E0
1.429706679E1,-2.354004822E0,-9.179361420E0,7.848179626E-1,9.508835576E0
1.430707679E1,-2.086361389E0,-9.129066010E0,8.584648132E-1,9.403707348E0
1.431708779E1,-1.885030060E0,-8.957672424E0,1.055006104E0,9.214459912E0
1.432709779E1,-1.605112152E0,-8.646469574E0,1.122066650E0,8.865486714E0
1.433710879E1,-1.133592682E0,-8.369395752E0,5.421725464E-1,8.463200854E0
1.434711879E1,-4.960684204E-1,-8.197253723E0,-1.046174469E0,8.278619057E0
1.435712979E1,-2.990780640E-1,-8.266110535E0,-2.140099640E0,8.543890070E0
1.436713979E1,-5.066963196E-1,-8.463549957E0,-2.145937500E0,8.746054356E0
1.437715079E1,-5.840853882E-1,-8.578510895E0,-1.288670197E0,8.694404855E0
1.438716079E1,-8.099656677E-1,-8.576714630E0,-4.700225830E-2,8.615003624E0
1.439717179E1,-1.421593781E0,-8.489595795E0,4.101470947E-1,8.617562664E0
1.440718179E1,-1.910477142E0,-8.604407043E0,7.433541870E-1,8.845242729E0
1.441719279E1,-2.097288666E0,-8.878786469E0,1.041683807E0,9.182405679E0
1.442720279E1,-1.754501495E0,-8.967252502E0,4.668791199E-1,9.149200460E0
1.443721379E1,-1.191222839E0,-9.006171570E0,-3.287164307E-1,9.090555137E0
1.444722379E1,-9.216334534E-1,-9.090745697E0,-7.363188171E-1,9.166964108E0
1.445723479E1,-9.398954773E-1,-9.220974884E0,-8.587641907E-1,9.308450852E0
1.446724479E1,-1.209035797E0,-9.515113220E0,-6.390211487E-1,9.612881731E0
1.447725579E1,-1.527423706E0,-9.921218719E0,-7.200027466E-2,1.003836581E1
1.448726579E1,-1.665586395E0,-1.015248779E1,2.565664673E-1,1.029140480E1
1.449727679E1,-1.979034576E0,-1.057296341E1,-7.349716187E-2,1.075683666E1
1.450728679E1,-2.011816406E0,-1.122380997E1,-6.345304871E-1,1.142033031E1
1.451729779E1,-1.433718567E0,-1.165895508E1,-1.318158875E0,1.182050444E1
1.452730779E1,-4.736151123E-1,-1.165371597E1,-1.841320953E0,1.180778854E1
1.453731879E1,4.058061218E-1,-1.154429352E1,-1.450633392E0,1.164215309E1
1.454732879E1,9.785151672E-1,-1.149324966E1,-6.114784241E-1,1.155102531E1
1.455733979E1,1.416204987E0,-1.151645142E1,6.236032104E-1,1.161994711E1
1.456734979E1,1.744322662E0,-1.179352524E1,1.773062897E0,1.205295197E1
1.457736079E1,1.904938660E0,-1.228345642E1,2.358345795E0,1.265203098E1
1.458737079E1,2.067949677E0,-1.287562500E1,2.193089447E0,1.322375803E1
1.459738179E1,1.625170441E0,-1.336765182E1,-7.616162109E-1,1.348759999E1
1.460739179E1,8.813671875E-1,-1.394110931E1,-7.469167786E0,1.584044837E1
1.461740279E1,1.111887817E0,-1.464704132E1,-1.172781189E1,1.879664028E1
1.462741279E1,2.167792053E0,-1.426892761E1,-8.814869385E0,1.691163918E1
1.463742379E1,2.218237152E0,-1.377136230E1,-3.224893799E0,1.431680606E1
1.464743379E1,9.611512756E-1,-1.399694321E1,4.848417664E-1,1.403827990E1
1.465744479E1,-2.502795410E-1,-1.409034897E1,1.271455994E0,1.414981181E1
1.466745479E1,-9.747729492E-1,-1.447654587E1,1.198258209E0,1.455872197E1
1.467746579E1,-1.406175842E0,-1.527303955E1,1.137185211E0,1.537973530E1
1.468747579E1,-1.936223602E0,-1.645228729E1,1.242117004E0,1.661233197E1
1.469748679E1,-2.840942230E0,-1.751343063E1,1.585502930E0,1.781305771E1
1.470749679E1,-3.759731598E0,-1.787313263E1,1.955234070E0,1.836865243E1
1.471750779E1,-4.427792358E0,-1.766581375E1,1.981878662E0,1.831977521E1
1.472751779E1,-5.238207092E0,-1.698338287E1,2.069446564E0,1.789292364E1
1.473752879E1,-5.875731354E0,-1.569366486E1,2.204765167E0,1.690196216E1
1.474753879E1,-5.922733612E0,-1.393886398E1,2.151026917E0,1.529698073E1
1.475754979E1,-5.605692902E0,-1.227327759E1,1.617386627E0,1.358944720E1
1.476755979E1,-5.610632629E0,-1.087518494E1,4.900808716E-1,1.224700066E1
1.477757079E1,-5.694458313E0,-9.774374084E0,-4.549040222E-1,1.132131538E1
1.478758079E1,-5.447172546E0,-9.037606201E0,-4.767585754E-1,1.056301630E1
1.479759179E1,-4.570146332E0,-8.504564667E0,3.035687256E-1,9.659503695E0
1.480760179E1,-3.705544281E0,-8.009693756E0,1.254241791E0,8.913998820E0
1.481761279E1,-3.282074890E0,-7.513325958E0,2.112257538E0,8.466623556E0
1.482762279E1,-3.165467377E0,-7.052434387E0,2.855911102E0,8.240949140E0
1.483763379E1,-2.846480713E0,-6.798712006E0,3.649560699E0,8.224611279E0
1.484764379E1,-2.436333618E0,-6.555916901E0,4.384382629E0,8.254609558E0
1.485765379E1,-2.092199249E0,-6.386020203E0,4.380790100E0,8.021837298E0
1.486766479E1,-1.925296326E0,-6.283633118E0,3.816014557E0,7.599524867E0
1.487767479E1,-1.696571960E0,-6.188580780E0,3.159928894E0,7.152764438E0
1.488768579E1,-1.133293304E0,-6.174060974E0,2.051633606E0,6.603982365E0
1.489769579E1,-6.087840271E-1,-6.079008636E0,1.071322174E0,6.202636149E0
1.490770679E1,-6.840774536E-1,-5.706134033E0,1.642234955E0,5.977027958E0
1.491771679E1,-1.421893158E0,-5.107977905E0,2.832559662E0,6.011373609E0
1.492772779E1,-2.780018921E0,-4.343966675E0,3.584296417E0,6.280583769E0
1.493773779E1,-3.622467041E0,-3.598067780E0,3.643872528E0,6.272652247E0
1.494774879E1,-3.748504944E0,-2.941682739E0,2.919079742E0,5.588006191E0
1.495775879E1,-3.691473541E0,-2.373314667E0,1.950294342E0,4.802420997E0
1.496776979E1,-3.752696228E0,-1.993704071E0,1.238973541E0,4.426357457E0
1.497777979E1,-3.873495026E0,-1.737736359E0,8.894503784E-1,4.337604563E0
1.498779079E1,-3.917353821E0,-1.661844177E0,6.676116943E-1,4.307330078E0
1.499780079E1,-4.092190247E0,-1.762734375E0,-0.000000000E0,4.455698990E0
1.500781179E1,-4.245321808E0,-2.285297699E0,-1.056053925E0,4.935645117E0
1.501782179E1,-4.879103851E0,-3.510499878E0,-2.472408600E0,6.499389823E0
1.502783279E1,-5.318589935E0,-5.724096680E0,-4.500391388E0,9.016995306E0
1.503784279E1,-4.955145721E0,-9.578431549E0,-1.109043732E1,1.546924756E1
1.504785379E1,-7.999365234E-1,-1.531614990E1,-2.437501190E1,2.879870746E1
1.505786379E1,3.921395416E0,-1.994093262E1,-2.377999924E1,3.128108853E1
1.506787479E1,3.885470123E0,-2.169229065E1,-1.066876419E1,2.448417614E1
1.507788479E1,4.369563446E0,-2.216889954E1,-2.902613983E0,2.278109653E1
1.508789579E1,6.155200195E0,-2.000993912E1,1.189426575E0,2.096899827E1
1.509790579E1,7.585625610E0,-1.593960342E1,2.178719330E0,1.778649744E1
1.510791679E1,8.510402527E0,-1.200698135E1,1.287322998E-2,1.471715727E1
1.511792679E1,8.142916718E0,-8.874595184E0,-4.381388855E0,1.281647770E1
1.512793779E1,5.860313416E0,-9.063951416E0,-5.778134308E0,1.224276622E1
1.513794779E1,1.714833984E0,-1.447055832E1,-3.891906738E-1,1.457700871E1
1.514795879E1,-7.671546936E-1,-2.085882385E1,4.383634186E0,2.132827484E1
1.515796879E1,3.050656128E-1,-2.429193466E1,4.486620026E0,2.470467393E1
1.516797979E1,1.998943176E0,-2.255330017E1,-2.069147186E0,2.273606150E1
1.517798979E1,3.763174438E-1,-1.452085373E1,-2.152224426E0,1.468430720E1
1.518800079E1,-4.530478821E0,-7.975115662E0,3.726351013E0,9.900171717E0
1.519801079E1,-5.968089294E0,-3.494034119E0,1.352736969E0,7.046719915E0
1.520802179E1,-5.793552246E0,7.006929016E-1,-2.846331024E0,6.492905241E0
1.521803179E1,-7.194788361E0,1.496887207E-1,2.805166626E-1,7.201810596E0
1.522804279E1,-9.122330017E0,-3.573219452E0,5.641618195E0,1.130542604E1
1.523805279E1,-9.297615509E0,-6.357130280E0,7.553143158E0,1.356129533E1
1.524806258E1,-9.371561737E0,-8.037835236E0,5.957162018E0,1.370841873E1
1.525807258E1,-9.744436340E0,-9.470056915E0,5.601052551E0,1.469720406E1
1.526808358E1,-9.108708344E0,-1.042237656E1,4.785997467E0,1.464582782E1
1.527809358E1,-7.795788574E0,-1.097008759E1,3.880979462E0,1.400639649E1
1.528810458E1,-6.655010834E0,-1.117785553E1,2.955753479E0,1.334054354E1
1.529811458E1,-5.544320526E0,-1.092203751E1,2.134261780E0,1.243324040E1
1.530812558E1,-4.713847504E0,-1.040411453E1,1.654359741E0,1.154135450E1
1.531813558E1,-4.261787567E0,-1.015143997E1,1.254990234E0,1.108104540E1
1.532814558E1,-4.076772308E0,-1.012030472E1,9.957293701E-1,1.095591699E1
1.533815658E1,-3.988755341E0,-9.965077515E0,8.222401428E-1,1.076517617E1
1.534816658E1,-3.832480316E0,-9.806557159E0,7.312294006E-1,1.055420130E1
1.535817758E1,-3.484603729E0,-9.471254425E0,7.685018921E-1,1.012115204E1
1.536818758E1,-2.953208771E0,-9.142687683E0,6.887178040E-1,9.632471766E0
1.537819858E1,-2.611619110E0,-8.945397949E0,7.602690125E-1,9.349797207E0
1.538820858E1,-2.352507935E0,-8.912915497E0,9.119036865E-1,9.263148739E0
1.539821958E1,-2.112856293E0,-8.876391449E0,1.374441833E0,9.227327740E0
1.540822958E1,-1.736987915E0,-8.909322968E0,1.829196167E0,9.259542180E0
1.541824058E1,-1.196312256E0,-8.995543671E0,1.398990784E0,9.181946643E0
1.542825058E1,-3.330574036E-1,-8.838071136E0,-1.453477478E-1,8.845538684E0
1.543826158E1,2.659968567E-1,-8.517288208E0,-1.347647552E0,8.627346444E0
1.544827158E1,3.311114502E-1,-8.222850494E0,-1.770967255E0,8.417911265E0
1.545828258E1,-4.790039062E-3,-8.086484070E0,-1.577419739E0,8.238901662E0
1.546829258E1,-5.260061646E-1,-7.851622467E0,-8.767268372E-1,7.917910570E0
1.547830358E1,-7.762857056E-1,-7.588320007E0,-3.855981445E-1,7.637663645E0
1.548831358E1,-9.807604980E-1,-7.445816345E0,-4.191284180E-3,7.510132473E0
1.549832458E1,-1.344653778E0,-8.077203369E0,1.108594666E0,8.263067843E0
1.550833458E1,-1.456321564E0,-9.041498108E0,1.684447174E0,9.311655213E0
1.551834558E1,-1.168619843E0,-9.740843811E0,6.042933655E-1,9.829286900E0
1.552835558E1,-8.310717773E-1,-1.019649628E1,-3.270698547E-1,1.023553571E1
1.553836658E1,-6.797364807E-1,-1.034139496E1,-6.611750793E-1,1.038477943E1
1.554837658E1,-7.406597900E-1,-1.025247986E1,-5.658233643E-1,1.029475965E1
1.555838758E1,-8.828640747E-1,-1.005848328E1,-3.802093506E-2,1.009722637E1
1.556839758E1,-7.830216980E-1,-9.958191833E0,6.676116943E-2,9.989152348E0
1.557840858E1,-3.094065857E-1,-1.030816406E1,-7.776329041E-1,1.034208353E1
1.558841858E1,1.425036621E-1,-1.106678650E1,-1.890718231E0,1.122804017E1
1.559842958E1,5.789959717E-1,-1.157707535E1,-3.097209320E0,1.199819218E1
1.560843958E1,9.457333374E-1,-1.199126404E1,-3.150947571E0,1.243435947E1
1.561845058E1,1.147962799E0,-1.223226288E1,-2.005080414E0,1.244855097E1
1.562846058E1,1.349294128E0,-1.241353592E1,-5.298980713E-1,1.249789025E1
1.563847158E1,1.506916351E0,-1.268372406E1,9.066645813E-1,1.280506515E1
1.564848158E1,1.737736359E0,-1.302995407E1,1.242715759E0,1.320393022E1
1.565849258E1,2.146835632E0,-1.352587280E1,9.785151672E-1,1.373009943E1
1.566850258E1,2.507585449E0,-1.388198227E1,-4.308041382E-1,1.411322106E1
1.567851358E1,2.686613159E0,-1.426279037E1,-3.601360931E0,1.495375806E1
1.568852358E1,2.950214996E0,-1.468087097E1,-6.844516754E0,1.646448149E1
1.569853458E1,3.263214111E0,-1.449211349E1,-7.286098480E0,1.654560821E1
1.570854458E1,2.713108063E0,-1.362556549E1,-4.230802002E0,1.452297063E1
1.571855558E1,1.738784180E0,-1.298534683E1,-1.291065216E0,1.316470479E1
1.572856558E1,7.451504517E-1,-1.274674301E1,1.336720276E-1,1.276920416E1
1.573857558E1,-1.701960754E-1,-1.303010376E1,7.750881958E-1,1.305424576E1
1.574858658E1,-9.035211182E-1,-1.422476944E1,9.641450500E-1,1.428600685E1
1.575859658E1,-1.855242004E0,-1.607806549E1,9.981243896E-1,1.621549768E1
1.576860758E1,-3.006497955E0,-1.791848831E1,9.538165283E-1,1.819398305E1
1.577861758E1,-4.573738861E0,-1.919263870E1,1.488354950E0,1.978614839E1
1.578862858E1,-6.131250000E0,-1.945609085E1,2.511776733E0,2.055336274E1
1.579863858E1,-6.364315338E0,-1.835453156E1,2.545157318E0,1.959263035E1
1.580864958E1,-6.053262177E0,-1.616084335E1,2.089953918E0,1.738340439E1
1.581865958E1,-5.567671967E0,-1.376163254E1,1.860630798E0,1.496139860E1
1.582867058E1,-5.177134094E0,-1.189815765E1,1.866019592E0,1.310919151E1
1.583868058E1,-5.039869537E0,-1.026759842E1,1.402733002E0,1.152352039E1
1.584869158E1,-5.368436279E0,-8.804091797E0,-3.044668579E-1,1.031624159E1
1.585870158E1,-5.652994537E0,-7.727380829E0,-2.245181122E0,9.834103924E0
1.586871258E1,-5.239404602E0,-7.310198364E0,-2.305505676E0,9.284703395E0
1.587872258E1,-4.286635895E0,-7.316185913E0,-7.939489746E-1,8.516582565E0
1.588873358E1,-3.613036652E0,-7.378157043E0,1.036744080E0,8.280463362E0
1.589874358E1,-3.476520538E0,-7.365732880E0,2.671793976E0,8.571971708E0
1.590875458E1,-3.606450348E0,-7.141199799E0,4.013004913E0,8.950275253E0
1.591876458E1,-3.367996216E0,-6.858737183E0,4.846172333E0,9.048262846E0
1.592877558E1,-3.016227722E0,-6.574478302E0,5.032834167E0,8.811969948E0
1.593878558E1,-2.589165802E0,-6.144572296E0,4.758754120E0,8.191781798E0
1.594879658E1,-1.878294067E0,-5.689817963E0,3.565884705E0,6.972628685E0
1.595880658E1,-8.431965637E-1,-5.328319702E0,1.287472687E0,5.546129931E0
1.596881758E1,7.649093628E-2,-5.034331055E0,-4.918771362E-1,5.058881610E0
1.597882758E1,-4.939727783E-2,-4.761298828E0,1.553768921E-1,4.764089483E0
1.598883858E1,-1.468745728E0,-4.419110413E0,1.621428223E0,4.931001960E0
1.599884858E1,-3.347039795E0,-3.981121216E0,2.438279572E0,5.744319698E0
1.600885958E1,-4.168980560E0,-3.665427704E0,2.876717834E0,6.252300750E0
1.601886958E1,-4.148622894E0,-3.250789948E0,2.984493713E0,6.056889460E0
1.602888058E1,-4.044289856E0,-2.896476746E0,2.675236816E0,5.648251942E0
1.603889058E1,-4.059857483E0,-2.679577789E0,2.369273071E0,5.410733296E0
1.604890158E1,-4.076772308E0,-2.476001129E0,2.038610687E0,5.187156020E0
1.605891158E1,-3.793411560E0,-2.382894745E0,1.452279968E0,4.709275500E0
1.606892258E1,-3.676654358E0,-2.522254944E0,3.490740967E-1,4.472293594E0
1.607893258E1,-3.888014832E0,-3.018622742E0,-9.889933777E-1,5.020642438E0
1.608894258E1,-4.088747406E0,-4.458628235E0,-2.376009064E0,6.499433834E0
1.609895358E1,-4.074826355E0,-6.839876404E0,-4.358336792E0,9.076520183E0
1.610896358E1,-3.019520874E0,-9.602830811E0,-8.424032135E0,1.312616407E1
1.611897458E1,6.149212646E-1,-1.401221146E1,-1.919952438E1,2.377692021E1
1.612898458E1,3.970493317E0,-1.906899582E1,-2.312436264E1,3.023454260E1
1.613899558E1,2.610421600E0,-2.143332916E1,-1.292756699E1,2.516592713E1
1.614900558E1,2.963986359E0,-2.232023483E1,-5.486241302E0,2.317492053E1
1.615901658E1,5.739664307E0,-2.165247345E1,-2.352657623E0,2.252350663E1
1.616902658E1,8.757089539E0,-1.883473297E1,-2.220632172E0,2.088935113E1
1.617903758E1,1.044991928E1,-1.497351242E1,-2.796634369E0,1.847235911E1
1.618904758E1,9.460776215E0,-1.085991669E1,-2.302960968E0,1.458587352E1
1.619905858E1,5.135221252E0,-8.141419830E0,3.885919189E-1,9.633494581E0
1.620906858E1,4.297563171E-1,-8.956325226E0,3.156186676E0,9.505891141E0
1.621907958E1,-3.761228485E0,-1.298160461E1,5.879922638E0,1.473914476E1
1.622908958E1,-4.720284119E0,-1.616668121E1,6.940317535E0,1.821567103E1
1.623910058E1,-4.545298004E0,-1.811682587E1,4.710105286E0,1.926302690E1
1.624911033E1,-3.688479767E0,-1.767823792E1,-1.487905884E0,1.812012259E1
1.625912133E1,-3.068918152E0,-1.360146561E1,-6.562353516E0,1.541047076E1
1.626913133E1,-5.500162354E0,-6.926995239E0,-4.377347260E0,9.868952224E0
1.627914233E1,-5.546266479E0,-3.496429138E0,-3.197800140E0,7.294656559E0
1.628915233E1,-5.737868042E0,-3.577710114E0,-8.488847351E-1,6.814964755E0
1.629916333E1,-6.868616638E0,-5.420827332E0,2.446063385E0,9.085509868E0
1.630917333E1,-7.757917328E0,-7.184908905E0,4.669689331E0,1.155916068E1
1.631918433E1,-7.906109161E0,-8.328231354E0,5.109923859E0,1.256890295E1
1.632919433E1,-7.415279846E0,-9.418563995E0,4.363575897E0,1.275682239E1
1.633920533E1,-6.566245422E0,-1.002944366E1,3.679498444E0,1.253969808E1
1.634921533E1,-5.923332367E0,-1.055155792E1,3.204087067E0,1.251748437E1
1.635922633E1,-5.268743591E0,-1.086231171E1,2.515219574E0,1.233190189E1
1.636923633E1,-4.562063141E0,-1.063912582E1,2.084265747E0,1.176212490E1
1.637924733E1,-3.802093506E0,-1.026445496E1,1.729204102E0,1.108174613E1
1.638925733E1,-3.365301819E0,-9.763446808E0,1.477128296E0,1.043226044E1
1.639926833E1,-3.253184967E0,-9.175619202E0,1.393003235E0,9.834411938E0
1.640927833E1,-3.098107452E0,-8.813522186E0,1.240919495E0,9.424241312E0
1.641928933E1,-2.835553436E0,-8.631500702E0,1.050515442E0,9.145859738E0
1.642929933E1,-2.518961792E0,-8.410410461E0,8.355624390E-1,8.819202755E0
1.643930933E1,-2.339934082E0,-8.240064697E0,9.464817810E-1,8.617991964E0
1.644932033E1,-2.214644623E0,-8.118966522E0,1.338217163E0,8.521331666E0
1.645933033E1,-2.049687653E0,-8.270750885E0,1.659748535E0,8.681088922E0
1.646934133E1,-1.736838226E0,-8.436007233E0,1.880090332E0,8.815756616E0
1.647935133E1,-1.497336273E0,-8.616082764E0,1.800605621E0,8.928666121E0
1.648936233E1,-1.396146698E0,-8.651558990E0,1.462758179E0,8.884726223E0
1.649937233E1,-1.335522766E0,-8.435258789E0,1.235231323E0,8.629195114E0
1.650938333E1,-1.393302612E0,-8.222700806E0,1.021026764E0,8.402178072E0
1.651939333E1,-1.435065765E0,-8.062384186E0,5.031037903E-1,8.204545443E0
1.652940433E1,-1.475032654E0,-8.201295319E0,4.355941772E-2,8.332998479E0
1.653941433E1,-1.230890350E0,-8.399183807E0,-2.921923828E-1,8.493924657E0
